"Time (s)","Acceleration x (m/s^2)","Acceleration y (m/s^2)","Acceleration z (m/s^2)"
1.373337400E-2,3.466804028E0,5.425560474E0,7.692869186E0
1.574637400E-2,3.462015629E0,5.427954674E0,7.707234383E0
1.775837400E-2,3.469198227E0,5.399224281E0,7.733570576E0
1.977087400E-2,3.464409828E0,5.384859085E0,7.750329971E0
2.178354000E-2,3.452438831E0,5.375282288E0,7.752724171E0
2.379604000E-2,3.438073635E0,5.360917091E0,7.774271965E0
2.580864000E-2,3.421314240E0,5.341763496E0,7.803002834E0
2.782114000E-2,3.371036053E0,5.336975098E0,7.853281021E0
2.983342500E-2,3.366247654E0,5.320215225E0,7.882011414E0
3.184580000E-2,3.339911461E0,5.301061630E0,7.946654797E0
3.385835500E-2,3.318363667E0,5.269937038E0,7.996932983E0
3.587075500E-2,3.320757866E0,5.269937038E0,8.018480301E0
3.788320900E-2,3.303998232E0,5.269937038E0,8.035240173E0
3.989562500E-2,3.294421434E0,5.267542839E0,8.006509781E0
4.192131700E-2,3.284844637E0,5.293879032E0,7.951443195E0
4.394617400E-2,3.282450438E0,5.296273232E0,7.932289600E0
4.597017400E-2,3.256114244E0,5.286696434E0,7.901165009E0
4.799342400E-2,3.227383852E0,5.279513836E0,7.858069420E0
5.001607100E-2,3.215412855E0,5.281908035E0,7.848492622E0
5.203812600E-2,3.189076662E0,5.272331238E0,7.810185432E0
5.405965200E-2,3.155557871E0,5.243600845E0,7.779060364E0
5.608065200E-2,3.131615877E0,5.234024048E0,7.755118370E0
5.810122300E-2,3.114856482E0,5.219658852E0,7.735964775E0
6.012145000E-2,3.095702887E0,5.229235649E0,7.731176376E0
6.214131900E-2,3.078943491E0,5.222053051E0,7.728782177E0
6.416086000E-2,3.062183857E0,5.222053051E0,7.709628582E0
6.618010000E-2,3.074155092E0,5.200505257E0,7.709628582E0
6.819902300E-2,3.052607059E0,5.205293655E0,7.728782177E0
7.021768900E-2,3.057395458E0,5.205293655E0,7.731176376E0
7.223611700E-2,3.086126089E0,5.178957462E0,7.716811180E0
7.425428900E-2,3.045424461E0,5.159803867E0,7.680898190E0
7.719828900E-2,3.019088268E0,5.155015469E0,7.652167797E0
7.923037400E-2,2.997540474E0,5.162198067E0,7.604283810E0
8.124237400E-2,2.990357876E0,5.162198067E0,7.592312813E0
8.325337400E-2,3.009511471E0,5.159803867E0,7.573159218E0
8.526487400E-2,2.973598480E0,5.181351662E0,7.544428825E0
8.727620700E-2,2.942473888E0,5.186140060E0,7.515698433E0
8.928770700E-2,2.932897091E0,5.193322659E0,7.496544838E0
9.129950700E-2,2.896984100E0,5.190928459E0,7.443872452E0
9.331134000E-2,2.882618904E0,5.190928459E0,7.393594265E0
9.532319700E-2,2.870647907E0,5.198111057E0,7.372046471E0
9.733507200E-2,2.875436306E0,5.181351662E0,7.331345081E0
9.934707200E-2,2.868253708E0,5.195716858E0,7.305008888E0
1.013591720E-1,2.882618904E0,5.195716858E0,7.309797287E0
1.033713530E-1,2.894589901E0,5.210082054E0,7.305008888E0
1.053836030E-1,2.916137695E0,5.238812447E0,7.314585686E0
1.073959870E-1,2.911349297E0,5.274725437E0,7.314585686E0
1.094083440E-1,2.928108692E0,5.296273232E0,7.328950882E0
1.114207440E-1,2.956839085E0,5.322609425E0,7.352892876E0
1.134331810E-1,2.999934673E0,5.322609425E0,7.355287075E0
1.154455330E-1,3.043030262E0,5.336975098E0,7.333739281E0
1.174577550E-1,3.050212860E0,5.336975098E0,7.312191486E0
1.194699120E-1,3.052607059E0,5.341763496E0,7.288249016E0
1.214820620E-1,3.062183857E0,5.348946095E0,7.283460617E0
1.234941570E-1,3.078943491E0,5.360917091E0,7.266701221E0
1.255062930E-1,3.088520288E0,5.341763496E0,7.242759228E0
1.275183790E-1,3.098097086E0,5.332186222E0,7.230788231E0
1.295305450E-1,3.100491285E0,5.339369297E0,7.194875240E0
1.315427450E-1,3.088520288E0,5.334580898E0,7.156568050E0
1.335549750E-1,3.071760893E0,5.325003624E0,7.120655060E0
1.355671970E-1,3.035847664E0,5.320215225E0,7.075165272E0
1.375794470E-1,2.992752075E0,5.310638428E0,7.036858082E0
1.395916880E-1,2.983175278E0,5.298667431E0,7.024887085E0
1.416039210E-1,2.966415882E0,5.303455830E0,6.993762493E0
1.436161870E-1,2.987963676E0,5.305850029E0,6.981791496E0
1.456284530E-1,2.997540474E0,5.322609425E0,6.986579895E0
1.476407530E-1,2.997540474E0,5.327397823E0,7.000945091E0
1.496530190E-1,3.033453465E0,5.308244228E0,7.027281284E0
1.516652850E-1,3.055001259E0,5.322609425E0,7.063194275E0
1.536775850E-1,3.071760893E0,5.339369297E0,7.091924667E0
1.556898850E-1,3.090914488E0,5.351340294E0,7.154173851E0
1.577307510E-1,3.107673883E0,5.346551895E0,7.218817234E0
1.597716170E-1,3.124433279E0,5.339369297E0,7.261912823E0
1.618124830E-1,3.148375273E0,5.322609425E0,7.321768284E0
1.638533490E-1,3.153163671E0,5.315426826E0,7.343316078E0
1.658942150E-1,3.174711466E0,5.291484833E0,7.379229069E0
1.679350150E-1,3.220201254E0,5.329792023E0,7.427113056E0
1.699758150E-1,3.282450438E0,5.320215225E0,7.463026047E0
1.720166150E-1,3.351882458E0,5.327397823E0,7.470208645E0
1.740574150E-1,3.840299606E0,5.466261864E0,7.388805866E0
1.760983150E-1,4.060565948E0,5.559635639E0,7.379229069E0
1.781392810E-1,4.043806553E0,5.583577633E0,7.417536259E0
1.801803470E-1,3.928884983E0,5.641038418E0,7.472602844E0
1.822214130E-1,3.799597979E0,5.686528206E0,7.527669430E0
1.842625790E-1,3.761290789E0,5.705681801E0,7.542034626E0
1.863037450E-1,3.722983599E0,5.703287601E0,7.554005623E0
1.883449780E-1,3.725377798E0,5.664980412E0,7.565976620E0
1.903862110E-1,3.722983599E0,5.641038418E0,7.568370819E0
1.924273770E-1,3.687070608E0,5.554847240E0,7.558794022E0
1.944685100E-1,3.612850428E0,5.461473465E0,7.563582420E0
1.965096760E-1,3.596091032E0,5.344157696E0,7.513304234E0
1.985507760E-1,3.576937437E0,5.298667431E0,7.477391243E0
2.005918420E-1,3.459621429E0,5.231629848E0,7.474997044E0
2.026339420E-1,3.347094059E0,5.181351662E0,7.496544838E0
2.046750420E-1,3.303998232E0,5.138256073E0,7.501333237E0
2.067161420E-1,3.201047659E0,5.114314079E0,7.556399822E0
2.087572750E-1,3.131615877E0,5.080795288E0,7.633014202E0
2.107985080E-1,3.110068083E0,5.042488098E0,7.656956196E0
2.128397410E-1,3.050212860E0,4.965873718E0,7.673715591E0
2.148810070E-1,2.980781078E0,4.951508522E0,7.630620003E0
2.169223070E-1,2.923320293E0,4.963479519E0,7.587524414E0
2.189350400E-1,2.806004286E0,4.973056316E0,7.522881031E0
2.209478060E-1,2.726995707E0,4.939537525E0,7.472602844E0
2.229605390E-1,2.650381327E0,4.915595531E0,7.448660851E0
2.249732390E-1,2.619256735E0,4.872200489E0,7.403171062E0
2.269859390E-1,2.588132143E0,4.850652695E0,7.345710278E0
2.289986390E-1,2.540247917E0,4.826710701E0,7.302614689E0
2.310113720E-1,2.523488522E0,4.819528103E0,7.290643215E0
2.330240720E-1,2.470816135E0,4.788403511E0,7.314585686E0
2.350367380E-1,2.437297344E0,4.752490520E0,7.374440670E0
2.370493380E-1,2.432508945E0,4.742913723E0,7.455843449E0
2.390639710E-1,2.439691544E0,4.735731125E0,7.489362240E0
2.410764710E-1,2.427720547E0,4.714183331E0,7.580341816E0
2.430889710E-1,2.434903145E0,4.702212334E0,7.623437405E0
2.451014370E-1,2.466027737E0,4.707000732E0,7.692869186E0
2.471138700E-1,2.477998734E0,4.685452938E0,7.786243439E0
2.491262700E-1,2.480392933E0,4.675876141E0,7.831733227E0
2.511386030E-1,2.489969730E0,4.663905144E0,7.917924404E0
2.531509690E-1,2.509123325E0,4.635174274E0,7.958625793E0
2.551633350E-1,2.513911724E0,4.601655483E0,7.999327183E0
2.571756680E-1,2.501940727E0,4.606443882E0,8.028057098E0
2.591881010E-1,2.501940727E0,4.613626480E0,8.061576843E0
2.612005670E-1,2.542642117E0,4.630385876E0,8.073547363E0
2.632119670E-1,2.564189911E0,4.635174274E0,8.083124161E0
2.652243670E-1,2.578555346E0,4.625597477E0,8.071153641E0
2.672367670E-1,2.595314741E0,4.635174274E0,7.968202591E0
2.692491670E-1,2.600103140E0,4.654327869E0,7.896376610E0
2.712615000E-1,2.621650934E0,4.702212334E0,7.733570576E0
2.732738000E-1,2.628833532E0,4.728548527E0,7.539640427E0
2.752861000E-1,2.619256735E0,4.738125324E0,7.448660851E0
2.772984000E-1,2.621650934E0,4.771644115E0,7.283460617E0
2.793106330E-1,2.652775526E0,4.788403511E0,7.166144848E0
2.813227660E-1,2.698265314E0,4.797980309E0,7.063194275E0
2.833348990E-1,2.712630510E0,4.826710701E0,7.027281284E0
2.853471320E-1,2.731784105E0,4.879383087E0,6.993762493E0
2.873593650E-1,2.755726099E0,4.929960728E0,6.960243702E0
2.893716310E-1,2.765302896E0,4.946720123E0,6.936301708E0
2.913838970E-1,2.770091295E0,4.994604111E0,6.893206120E0
2.933961970E-1,2.760514498E0,5.023334503E0,6.857293129E0
2.954085300E-1,2.767697096E0,5.032911301E0,6.835745335E0
2.974208630E-1,2.760514498E0,5.037699699E0,6.816591740E0
2.994311290E-1,2.753331900E0,5.032911301E0,6.804620743E0
3.014434950E-1,2.746149302E0,5.030517101E0,6.775889874E0
3.034558280E-1,2.736572504E0,5.008969307E0,6.732794285E0
3.054681610E-1,2.695871115E0,5.018546104E0,6.708852291E0
3.074805610E-1,2.631227732E0,5.011363506E0,6.694487095E0
3.094929610E-1,2.597708941E0,4.989815712E0,6.677727699E0
3.115053610E-1,2.525882721E0,4.917989731E0,6.625055313E0
3.135178270E-1,2.446874142E0,4.865017891E0,6.567594528E0
3.155302930E-1,2.418143749E0,4.821922302E0,6.541258335E0
3.175427590E-1,2.377442360E0,4.786009312E0,6.495768547E0
3.195837250E-1,2.355894566E0,4.728548527E0,6.450278759E0
3.216247250E-1,2.327163935E0,4.683058739E0,6.414365768E0
3.236657580E-1,2.324769735E0,4.644751072E0,6.411971569E0
3.257067910E-1,2.315192938E0,4.625597477E0,6.414365768E0
3.277478240E-1,2.336740971E0,4.587290287E0,6.395212173E0
3.297888570E-1,2.343923569E0,4.587290287E0,6.395212173E0
3.318298900E-1,2.370259762E0,4.572925091E0,6.400000572E0
3.338709230E-1,2.396595955E0,4.558559895E0,6.404788971E0
3.359118560E-1,2.466027737E0,4.551377296E0,6.476614952E0
3.379527560E-1,2.561795712E0,4.572925091E0,6.577171326E0
3.399937220E-1,2.624045134E0,4.587290287E0,6.629843712E0
3.420346880E-1,2.743755102E0,4.637568474E0,6.763918877E0
3.440756210E-1,2.839523315E0,4.678270340E0,6.914753914E0
3.461164540E-1,2.899378300E0,4.704606533E0,6.993762493E0
3.481572870E-1,3.033453465E0,4.726154327E0,7.125443459E0
3.501980870E-1,3.172317266E0,4.783615112E0,7.252336025E0
3.522389200E-1,3.246537447E0,4.797980309E0,7.316979885E0
3.542797530E-1,3.361459255E0,4.824316502E0,7.443872452E0
3.563205530E-1,3.485957623E0,4.862623692E0,7.546823025E0
3.583613860E-1,3.591302633E0,4.925172329E0,7.647379398E0
3.604022190E-1,3.658340216E0,4.961085320E0,7.697657585E0
3.624429850E-1,3.766079187E0,5.035305500E0,7.788637638E0
3.644837850E-1,3.907337189E0,5.109525681E0,7.867646217E0
3.665342510E-1,3.979163170E0,5.150227070E0,7.901165009E0
3.685847170E-1,4.103661537E0,5.193322659E0,7.975385189E0
3.706351830E-1,4.225766182E0,5.250783443E0,8.008903503E0
3.726856490E-1,4.323928356E0,5.289090633E0,8.032846451E0
3.747360490E-1,4.374206543E0,5.301061630E0,8.049605370E0
3.767864150E-1,4.453215122E0,5.305850029E0,8.059182167E0
3.788368150E-1,4.529829502E0,5.336975098E0,8.085518837E0
3.808586480E-1,4.572925091E0,5.365705490E0,8.095095634E0
3.828804810E-1,4.651933670E0,5.418377876E0,8.119037628E0
3.849023140E-1,4.735731125E0,5.432743073E0,8.145373344E0
3.869241470E-1,4.774038315E0,5.430348873E0,8.162133217E0
3.889459800E-1,4.850652695E0,5.463867664E0,8.193257332E0
3.909677800E-1,4.929960728E0,5.499780655E0,8.253112793E0
3.929895800E-1,4.961085320E0,5.533299446E0,8.286631584E0
3.950113800E-1,5.061641693E0,5.581183434E0,8.356062889E0
3.970332130E-1,5.171774864E0,5.629067421E0,8.368034363E0
3.990551130E-1,5.238812447E0,5.693710804E0,8.387187958E0
4.019911130E-1,5.327397823E0,5.775113583E0,8.456619263E0
4.041363740E-1,5.404012680E0,5.822998047E0,8.535628319E0
4.061483740E-1,5.456685066E0,5.851728439E0,8.595483780E0
4.081603740E-1,5.545270443E0,5.909189224E0,8.739135742E0
4.101733740E-1,5.619490623E0,5.966650009E0,8.880393028E0
4.121857070E-1,5.650615215E0,5.992986202E0,8.911518097E0
4.141979570E-1,5.672163010E0,6.036081791E0,8.839692116E0
4.162101570E-1,5.645826817E0,6.031293392E0,8.765471458E0
4.182223230E-1,5.641038418E0,6.007351398E0,8.839692116E0
4.202343230E-1,5.645826817E0,5.928342819E0,8.940248489E0
4.222463230E-1,5.638644218E0,5.885247231E0,8.985737801E0
4.242583230E-1,5.588366032E0,5.803843975E0,9.110237122E0
4.262703230E-1,5.559635639E0,5.782296181E0,9.179668427E0
4.282823230E-1,5.487809658E0,5.729623795E0,9.277831078E0
4.302944060E-1,5.478232861E0,5.715258598E0,9.354445457E0
4.323064820E-1,5.463867664E0,5.715258598E0,9.387964249E0
4.343186240E-1,5.447108269E0,5.691316605E0,9.443030357E0
4.363308240E-1,5.437531471E0,5.664980412E0,9.483732224E0
4.383430110E-1,5.427954674E0,5.660192013E0,9.505280495E0
4.403552460E-1,5.447108269E0,5.691316605E0,9.531616211E0
4.423674120E-1,5.471050262E0,5.753565788E0,9.543587685E0
4.443795170E-1,5.528511047E0,5.815814972E0,9.555558205E0
4.463916670E-1,5.566818237E0,5.928342819E0,9.562741280E0
4.484039050E-1,5.650615215E0,6.064812183E0,9.545981407E0
4.504161770E-1,5.720046997E0,6.184522152E0,9.500492096E0
4.524285240E-1,5.751171589E0,6.261136532E0,9.476549149E0
4.544408990E-1,5.827786446E0,6.421548367E0,9.414299965E0
4.564533390E-1,5.897218227E0,6.541258335E0,9.344868660E0
4.584658000E-1,5.925948620E0,6.581959724E0,9.330503464E0
4.604782810E-1,5.902006626E0,6.596324921E0,9.294589996E0
4.624907810E-1,5.849334240E0,6.581959724E0,9.258677483E0
4.645033320E-1,5.839757442E0,6.579565525E0,9.222764015E0
4.665158980E-1,5.791872978E0,6.538864136E0,9.115025520E0
4.685285310E-1,5.736806393E0,6.522104740E0,9.050381660E0
4.705411640E-1,5.650615215E0,6.498162746E0,9.004891396E0
4.725539300E-1,5.607519627E0,6.438307762E0,8.990526199E0
4.745667630E-1,5.535693645E0,6.380846977E0,8.988132477E0
4.765796290E-1,5.451896667E0,6.306626320E0,8.992920876E0
4.785925290E-1,5.396830082E0,6.253953934E0,8.988132477E0
4.806054950E-1,5.279513836E0,6.191704750E0,8.983344078E0
4.826201280E-1,5.250783443E0,6.170156956E0,8.997709274E0
4.846331610E-1,5.236418247E0,6.148609161E0,9.012074471E0
4.866462610E-1,5.207687855E0,6.112696171E0,9.026439667E0
4.886593940E-1,5.193322659E0,6.129455566E0,9.019257545E0
4.906725600E-1,5.190928459E0,6.134243965E0,8.997709274E0
4.926858600E-1,5.202899456E0,6.141426563E0,8.952219009E0
4.946991600E-1,5.222053051E0,6.153397560E0,8.887576103E0
4.967125260E-1,5.238812447E0,6.174945354E0,8.844480515E0
4.987259260E-1,5.277119637E0,6.222829342E0,8.755894661E0
5.007393590E-1,5.372888088E0,6.282684326E0,8.688857079E0
5.027528920E-1,5.437531471E0,6.349722385E0,8.648156166E0
5.047664580E-1,5.490203857E0,6.390423775E0,8.645761490E0
5.067800580E-1,5.621884823E0,6.474220753E0,8.648156166E0
5.087936240E-1,5.763142586E0,6.560411930E0,8.708010674E0
5.108071900E-1,5.854122639E0,6.615478516E0,8.763077736E0
5.128207900E-1,6.038475990E0,6.692092896E0,8.899546623E0
5.148343900E-1,6.220435143E0,6.785466671E0,9.069535255E0
5.168479560E-1,6.306626320E0,6.828562737E0,9.165303230E0
5.188615890E-1,6.490980148E0,6.886023521E0,9.347262383E0
5.208752220E-1,6.675333500E0,6.931513309E0,9.519645691E0
5.228887880E-1,6.766313076E0,6.929119110E0,9.579500198E0
5.249022880E-1,6.869264126E0,6.960243702E0,9.708786964E0
5.269157540E-1,6.926724911E0,7.005733490E0,9.806949615E0
5.289446870E-1,6.991368294E0,7.029675484E0,9.873987198E0
5.309736200E-1,7.056011677E0,7.070376873E0,9.957783699E0
5.330025200E-1,7.082347870E0,7.096713066E0,9.996091843E0
5.350314200E-1,7.163750648E0,7.091924667E0,1.002242756E1
5.370603530E-1,7.211634636E0,7.070376873E0,9.988908768E0
5.390893190E-1,7.214028835E0,7.053617477E0,9.955389977E0
5.411183190E-1,7.180510044E0,7.024887085E0,9.828496933E0
5.431468850E-1,7.149385452E0,7.005733490E0,9.802161217E0
5.451771510E-1,7.113472462E0,6.979397297E0,9.773430824E0
5.472073840E-1,7.058405876E0,6.921936512E0,9.715970039E0
5.492376500E-1,7.000945091E0,6.864475727E0,9.641749382E0
5.512678160E-1,6.943484306E0,6.816591740E0,9.577106476E0
5.532978490E-1,6.919542313E0,6.804620743E0,9.541193008E0
5.553279150E-1,6.878840923E0,6.761524677E0,9.493309021E0
5.573579150E-1,6.854898930E0,6.723217487E0,9.483732224E0
5.593878810E-1,6.847716331E0,6.708852291E0,9.486125946E0
5.614178140E-1,6.854898930E0,6.694487095E0,9.495702744E0
5.643518140E-1,6.840533733E0,6.672939301E0,9.507674217E0
5.666043740E-1,6.814197540E0,6.651391506E0,9.548376083E0
5.686173740E-1,6.838139534E0,6.658574104E0,9.581894875E0
5.706323740E-1,6.881235123E0,6.653785706E0,9.598653793E0
5.726463740E-1,6.921936512E0,6.670545101E0,9.603442192E0
5.746607070E-1,6.996156693E0,6.723217487E0,9.591471672E0
5.766744570E-1,7.120655060E0,6.780678272E0,9.579500198E0
5.786878570E-1,7.190086842E0,6.818985939E0,9.567529678E0
5.807011900E-1,7.345710278E0,6.888417721E0,9.569923401E0
5.827146180E-1,7.489362240E0,6.986579895E0,9.586683273E0
5.847279930E-1,7.570765018E0,7.032069683E0,9.605836868E0
5.867415480E-1,7.745541573E0,7.111078262E0,9.680056572E0
5.887552480E-1,7.903559208E0,7.180510044E0,9.761459351E0
5.907687930E-1,7.972990990E0,7.211634636E0,9.809343338E0
5.927822930E-1,8.109460831E0,7.288249016E0,9.893140793E0
5.947958310E-1,8.219594002E0,7.381623268E0,9.976937294E0
5.968093310E-1,8.377611160E0,7.465420246E0,1.005355263E1
5.988227970E-1,8.456619263E0,7.503727436E0,1.010383034E1
6.008362970E-1,8.664915085E0,7.592312813E0,1.022114658E1
6.028497670E-1,8.882787704E0,7.640196800E0,1.037676907E1
6.048630440E-1,8.988132477E0,7.644985199E0,1.046774864E1
6.068763070E-1,9.194033623E0,7.668927193E0,1.065449715E1
6.088895070E-1,9.371204376E0,7.712022781E0,1.086758041E1
6.109041730E-1,9.445425034E0,7.721599579E0,1.098729134E1
6.129174000E-1,9.560346603E0,7.759906769E0,1.121473980E1
6.149306170E-1,9.663297653E0,7.798214436E0,1.146373749E1
6.169438250E-1,9.696816444E0,7.822156429E0,1.159302425E1
6.189569850E-1,9.775824547E0,7.846098423E0,1.182526112E1
6.209701770E-1,9.818920135E0,7.822156429E0,1.200722122E1
6.229833250E-1,9.780612946E0,7.788637638E0,1.218918037E1
6.249964670E-1,9.759065628E0,7.764695168E0,1.227537155E1
6.270096390E-1,9.718363762E0,7.697657585E0,1.243578243E1
6.290228050E-1,9.639355659E0,7.640196800E0,1.262731934E1
6.310359050E-1,9.579500198E0,7.601889610E0,1.272548103E1
6.330489710E-1,9.483732224E0,7.520486832E0,1.291941166E1
6.350619370E-1,9.354445457E0,7.427113056E0,1.310855389E1
6.370749030E-1,9.270648003E0,7.367258072E0,1.320911026E1
6.390879030E-1,9.047987938E0,7.230788231E0,1.340782833E1
6.411009030E-1,8.789413452E0,7.082347870E0,1.353472137E1
6.431138690E-1,8.648156166E0,6.996156693E0,1.357781696E1
6.451551350E-1,8.056788445E0,6.689698696E0,1.358500004E1
6.471963680E-1,7.625831604E0,6.577171326E0,1.351796246E1
6.492375340E-1,7.412747860E0,6.323386192E0,1.343416500E1
6.512787340E-1,6.967426300E0,6.052841187E0,1.321629238E1
6.533199670E-1,6.505345345E0,5.772719383E0,1.292420006E1
6.553611670E-1,6.280290127E0,5.638644218E0,1.275660610E1
6.574023670E-1,5.842151642E0,5.375282288E0,1.238789845E1
6.594435670E-1,5.420772076E0,5.140650272E0,1.195933723E1
6.614847330E-1,5.212476254E0,5.030517101E0,1.171033955E1
6.635258660E-1,4.544194698E0,4.766855717E0,1.094898319E1
6.655691320E-1,4.331110954E0,4.680664539E0,1.066646767E1
6.676124320E-1,4.125209332E0,4.606443882E0,1.037437534E1
6.696557980E-1,3.718195200E0,4.465186119E0,9.780612946E0
6.716981310E-1,3.344699860E0,4.343081951E0,9.198822021E0
6.737414640E-1,2.990357876E0,4.235342979E0,8.650549889E0
6.757847970E-1,2.827552319E0,4.201824188E0,8.380004883E0
6.778281300E-1,2.516305923E0,4.127603531E0,7.834127426E0
6.798714630E-1,2.245761156E0,4.079719543E0,7.307403088E0
6.819147960E-1,2.121262789E0,4.060565948E0,7.048829079E0
6.839581290E-1,1.896207690E0,4.031835556E0,6.534075737E0
6.860013950E-1,1.699883223E0,4.039018154E0,6.057629585E0
6.880445610E-1,1.601720929E0,4.017470360E0,5.839757442E0
6.900876610E-1,1.400607944E0,3.967192173E0,5.423166275E0
6.921364940E-1,1.254561663E0,3.967192173E0,5.020940304E0
6.941853600E-1,1.161187768E0,4.007893562E0,4.630385876E0
6.962342260E-1,1.089361787E0,4.017470360E0,4.467580318E0
6.982830920E-1,9.504981041E-1,4.043806553E0,4.187458992E0
7.003319250E-1,8.714894056E-1,4.115632534E0,3.962403774E0
7.023807580E-1,8.307880163E-1,4.151545525E0,3.861847401E0
7.044295580E-1,7.996633649E-1,4.271255970E0,3.663128614E0
7.064499910E-1,7.876923680E-1,4.381389141E0,3.464409828E0
7.084703240E-1,7.924807668E-1,4.448426723E0,3.371036053E0
7.104906240E-1,8.762778044E-1,4.647145271E0,3.205836058E0
7.125108900E-1,9.097966552E-1,4.766855717E0,3.129221678E0
7.145310560E-1,8.667010069E-1,4.793191910E0,3.076549292E0
7.165512220E-1,8.714894056E-1,4.802768707E0,3.021482468E0
7.185713880E-1,8.259995580E-1,4.721365929E0,2.959233284E0
7.205915540E-1,7.374141216E-1,4.647145271E0,2.873042107E0
7.226117200E-1,7.182605267E-1,4.623203278E0,2.803610086E0
7.246319530E-1,8.092401624E-1,4.604049683E0,2.516305923E0
7.266519530E-1,8.092401624E-1,4.575319290E0,2.425326347E0
7.286700860E-1,7.829039693E-1,4.527435303E0,2.341529369E0
7.306881860E-1,6.440402865E-1,4.398148537E0,2.154781580E0
7.327062860E-1,4.788403511E-1,4.271255970E0,1.975216389E0
7.347243520E-1,3.734954596E-1,4.204218388E0,1.898601890E0
7.367424180E-1,1.915361285E-1,4.062960148E0,1.661576033E0
7.387604510E-1,-1.675941236E-2,3.842693806E0,1.388636947E0
7.407784840E-1,-1.316810995E-1,3.732560396E0,1.247379065E0
7.427965170E-1,-4.261679053E-1,3.519476414E0,9.600749016E-1
7.448145830E-1,-7.110779285E-1,3.296815634E0,7.422025204E-1
7.468326830E-1,-1.065419793E0,3.047818661E0,5.841852427E-1
7.488508490E-1,-1.230619669E0,2.930502892E0,5.195417404E-1
7.508691490E-1,-1.582567334E0,2.686294317E0,3.495534360E-1
7.528816820E-1,-1.905784607E0,2.485181332E0,1.316810995E-1
7.548941820E-1,-2.042253971E0,2.377442360E0,4.788403213E-2
7.569066480E-1,-2.293645144E0,2.173935175E0,-1.053448766E-1
7.589191140E-1,-2.518700123E0,1.960851192E0,-1.651999205E-1
7.609315800E-1,-2.638410330E0,1.848323703E0,-1.915361285E-1
7.629440800E-1,-2.908955097E0,1.616086125E0,-2.849099934E-1
7.649565800E-1,-3.181894064E0,1.386242747E0,-3.615244627E-1
7.669690460E-1,-3.315969467E0,1.292868972E0,-3.854664862E-1
7.689815120E-1,-3.591302633E0,1.110909581E0,-3.830722570E-1
7.709939780E-1,-3.833117008E0,9.193734527E-1,-3.519476354E-1
7.730157110E-1,-4.060565948E0,7.709329724E-1,-2.849099934E-1
7.750375110E-1,-4.156333923E0,6.919242740E-1,-2.681505978E-1
7.770592770E-1,-4.367023945E0,5.770025849E-1,-2.274491638E-1
7.790810430E-1,-4.580107689E0,4.740519226E-1,-1.963245422E-1
7.811027760E-1,-4.781220913E0,4.237737060E-1,-1.460463107E-1
7.831245090E-1,-4.886565685E0,3.088520169E-1,-1.628057212E-1
7.851461420E-1,-5.128679276E0,2.322375625E-1,-1.867477298E-1
7.871659420E-1,-5.188534260E0,1.963245422E-1,-1.891419291E-1
7.891875420E-1,-5.260360241E0,1.771709323E-1,-1.771709323E-1
7.912091080E-1,-5.415983677E0,1.053448766E-1,-2.250549644E-1
7.932306080E-1,-5.581183434E0,4.070143029E-2,-2.849099934E-1
7.952520740E-1,-5.672163010E0,1.675941236E-2,-2.944868207E-1
7.972735070E-1,-5.842151642E0,-5.506663769E-2,-3.232172430E-1
7.992949730E-1,-6.024110794E0,-1.412578970E-1,-3.591302633E-1
8.013165060E-1,-6.117484570E0,-1.771709323E-1,-3.687070608E-1
8.033378720E-1,-6.335357189E0,-2.466027737E-1,-3.615244627E-1
8.053591720E-1,-6.625055313E0,-3.639186621E-1,-4.477157295E-1
8.082901720E-1,-6.957849503E0,-4.860229492E-1,-5.913678408E-1
8.103963740E-1,-7.345710278E0,-6.560112834E-1,-7.805097699E-1
8.124073740E-1,-7.826944828E0,-8.810662031E-1,-1.072602391E0
8.144193740E-1,-8.114249229E0,-1.019929886E0,-1.304839969E0
8.164308740E-1,-8.784625053E0,-1.350329757E0,-1.927332401E0
8.184425400E-1,-9.541193008E0,-1.695094824E0,-2.683900118E0
8.204542900E-1,-9.952995300E0,-1.872265697E0,-3.086126089E0
8.224660900E-1,-1.081251431E1,-2.255337954E0,-3.873818398E0
8.244779230E-1,-1.172949314E1,-2.683900118E0,-4.606443882E0
8.264900650E-1,-1.270153904E1,-2.911349297E0,-5.255571842E0
8.285023150E-1,-1.320192719E1,-3.397372246E0,-5.545270443E0
8.305145370E-1,-1.416679096E1,-3.847482204E0,-6.060023785E0
8.325267370E-1,-1.496675301E1,-4.060565948E0,-6.510133743E0
8.345390090E-1,-1.533306599E1,-4.158728123E0,-6.735188484E0
8.365512590E-1,-1.601301956E1,-4.388571739E0,-7.269095421E0
8.385637200E-1,-1.658044624E1,-4.572925091E0,-7.843704224E0
8.405760050E-1,-1.683901978E1,-4.651933670E0,-8.121431351E0
8.425884050E-1,-1.724842834E1,-4.793191910E0,-8.717587471E0
8.446007800E-1,-1.755488586E1,-4.989815712E0,-9.285013199E0
8.466132500E-1,-1.778951645E1,-5.222053051E0,-9.809343338E0
8.486255830E-1,-1.789246750E1,-5.334580898E0,-1.007270622E1
8.506378460E-1,-1.798344803E1,-5.475838661E0,-1.052760410E1
8.526499960E-1,-1.798344803E1,-5.490203857E0,-1.069998646E1
8.546650910E-1,-1.790922737E1,-5.439925671E0,-1.099686813E1
8.566772720E-1,-1.777036285E1,-5.351340294E0,-1.121473980E1
8.586894450E-1,-1.757164574E1,-5.296273232E0,-1.130571938E1
8.607016530E-1,-1.747587585E1,-5.164592266E0,-1.130093098E1
8.627138530E-1,-1.728673553E1,-5.174169064E0,-1.121952820E1
8.647260450E-1,-1.709998703E1,-5.399224281E0,-1.107348251E1
8.667382300E-1,-1.699942970E1,-5.588366032E0,-1.097053146E1
8.687504080E-1,-1.684620094E1,-6.127061367E0,-1.070477486E1
8.707626140E-1,-1.673127937E1,-6.830956936E0,-1.041747093E1
8.727748140E-1,-1.663790703E1,-7.221211433E0,-1.027860737E1
8.747870470E-1,-1.631947708E1,-7.984961987E0,-9.988908768E0
8.767993470E-1,-1.576881123E1,-8.669703484E0,-9.761459351E0
8.788116800E-1,-1.542644024E1,-8.971372604E0,-9.660902977E0
8.808240130E-1,-1.471775627E1,-9.450213432E0,-9.435848236E0
8.828363130E-1,-1.399680233E1,-9.883563995E0,-9.110237122E0
8.848486460E-1,-1.330008984E1,-1.009425354E1,-8.892364502E0
8.868609120E-1,-1.296490192E1,-1.053239250E1,-8.363245964E0
8.889015120E-1,-1.194018269E1,-1.120995140E1,-7.434295654E0
8.909421450E-1,-1.157626438E1,-1.147570801E1,-7.099107265E0
8.929827450E-1,-1.086997509E1,-1.205989361E1,-6.400000572E0
8.950233450E-1,-1.016607952E1,-1.266802025E1,-5.669768810E0
8.970639780E-1,-9.785401344E0,-1.298166084E1,-5.303455830E0
8.991045110E-1,-9.000102997E0,-1.367597961E1,-4.587290287E0
9.011451440E-1,-8.145373344E0,-1.438705730E1,-3.821146011E0
9.031857440E-1,-7.697657585E0,-1.474888134E1,-3.435679436E0
9.052263770E-1,-6.723217487E0,-1.549347782E1,-2.619256735E0
9.072669100E-1,-5.691316605E0,-1.625722885E1,-1.757344007E0
9.093075100E-1,-4.546588898E0,-1.663311768E1,-1.319205165E0
9.113481430E-1,-3.883395195E0,-1.735137749E1,-4.453215301E-1
9.133888090E-1,-2.387019157E0,-1.796908188E1,4.620809257E-1
9.154274090E-1,-6.799532771E-1,-1.848383522E1,1.352723956E0
9.174680750E-1,2.609679997E-1,-1.870410156E1,1.795651317E0
9.195087750E-1,2.379836559E0,-1.904647255E1,2.762908697E0
9.215495080E-1,4.857835293E0,-1.920688438E1,3.835511208E0
9.235903080E-1,6.239588737E0,-1.920209694E1,4.407725334E0
9.256311410E-1,9.332897186E0,-1.896267509E1,5.621884823E0
9.276720070E-1,1.279970169E1,-1.835933685E1,6.821380138E0
9.297128730E-1,1.463844872E1,-1.787092018E1,7.412747860E0
9.317537060E-1,1.842876816E1,-1.655410957E1,8.573935509E0
9.337945390E-1,2.239835548E1,-1.485183144E1,9.711181641E0
9.358379720E-1,2.656456566E1,-1.268717384E1,1.088194561E1
9.378814050E-1,2.866427994E1,-1.143740082E1,1.149486160E1
9.399247710E-1,3.284695053E1,-8.684068680E0,1.265365505E1
9.419681370E-1,3.689105606E1,-5.681739807E0,1.368555641E1
9.440115700E-1,3.883036041E1,-4.146757126E0,1.409735870E1
9.460550030E-1,4.254137421E1,-1.091755986E0,1.470788002E1
9.480984690E-1,4.600368881E1,1.819593310E0,1.507449245E1
9.501135690E-1,4.757428360E1,3.169923067E0,1.520377922E1
9.521286690E-1,5.026776123E1,5.578789234E0,1.539052677E1
9.541438350E-1,5.225973511E1,7.503727436E0,1.558445740E1
9.561590010E-1,5.293250656E1,8.248324394E0,1.569698524E1
9.581741340E-1,5.366752625E1,9.280224800E0,1.599865437E1
9.601892670E-1,5.348078156E1,9.739912033E0,1.637454414E1
9.622043670E-1,5.241057205E1,9.785401344E0,1.689887428E1
9.642194330E-1,5.156063080E1,9.495702744E0,1.719575500E1
9.662344660E-1,4.933162689E1,8.703222275E0,1.788528442E1
9.682495660E-1,4.662617874E1,7.532457829E0,1.868973732E1
9.702654990E-1,4.515613937E1,6.850110531E0,1.911829948E1
9.722805650E-1,4.212478256E1,5.384859085E0,2.004724884E1
9.742956980E-1,3.911287689E1,3.854664803E0,2.101450729E1
9.763108310E-1,3.761410522E1,3.114856482E0,2.145982933E1
9.783259310E-1,3.470515060E1,1.742978811E0,2.224752045E1
9.803410310E-1,3.197067261E1,6.248866320E-1,2.289395523E1
9.823560640E-1,3.073287010E1,2.154781520E-1,2.318844223E1
9.843710640E-1,2.852781105E1,-3.543418646E-1,2.370798302E1
9.863860300E-1,2.672258377E1,-5.746083856E-1,2.411499786E1
9.884009630E-1,2.530521584E1,-5.961562395E-1,2.442863846E1
9.904158960E-1,2.475933838E1,-4.860229492E-1,2.456301308E1
9.924308290E-1,2.398331642E1,-2.178723514E-1,2.479764557E1
9.944457620E-1,2.357869720E1,2.322375625E-1,2.497720909E1
9.964580950E-1,2.350926590E1,5.027823448E-1,2.502988243E1
9.984703950E-1,2.355714989E1,1.125274777E0,2.506340027E1
1.000482728E0,2.386360741E1,1.762132406E0,2.497481537E1
1.002495061E0,2.407190323E1,2.078166962E0,2.487425995E1
1.004507361E0,2.450285912E1,2.729389906E0,2.457019615E1
1.006519594E0,2.493411446E1,3.337517262E0,2.407669067E1
1.008531794E0,2.512086296E1,3.615244627E0,2.376544380E1
1.010543927E0,2.542013741E1,4.170699596E0,2.299211693E1
1.012555993E0,2.556618309E1,4.663905144E0,2.203922462E1
1.014567993E0,2.558294296E1,4.888959885E0,2.149574089E1
1.016589193E0,2.545844460E1,5.281908035E0,2.033215904E1
1.018610426E0,2.520465851E1,5.624279022E0,1.908717537E1
1.020631659E0,2.482876968E1,5.897218227E0,1.782542992E1
1.022652859E0,2.458934975E1,6.000168800E0,1.720293808E1
1.024674059E0,2.406472015E1,6.184522152E0,1.601301956E1
1.026695259E0,2.345419884E1,6.340145588E0,1.492126369E1
1.028716425E0,2.280297470E1,6.476614952E0,1.396328354E1
1.030736758E0,2.245342255E1,6.522104740E0,1.352514458E1
1.032757958E0,2.173995018E1,6.622661114E0,1.271351051E1
1.034779191E0,2.101450729E1,6.668150902E0,1.196651936E1
1.036800457E0,2.066974258E1,6.672939301E0,1.161457157E1
1.038821757E0,1.998260689E1,6.725611687E0,1.097292614E1
1.040843057E0,1.932659531E1,6.763918877E0,1.034325027E1
1.042864390E0,1.901534843E1,6.773495674E0,1.003918743E1
1.044885723E0,1.839046097E1,6.818985939E0,9.488520622E0
1.046907023E0,1.782064247E1,6.866869926E0,9.002497673E0
1.048928356E0,1.752854919E1,6.869264126E0,8.765471458E0
1.050977989E0,1.671452141E1,6.864475727E0,8.104672432E0
1.053027655E0,1.621892166E1,6.854898930E0,7.656956196E0
1.055077321E0,1.597710609E1,6.802226067E0,7.443872452E0
1.057126954E0,1.550305462E1,6.716034889E0,7.024887085E0
1.059176587E0,1.506012726E1,6.641814709E0,6.660968304E0
1.061226220E0,1.483507252E1,6.589142323E0,6.493374348E0
1.063275886E0,1.441099930E1,6.469432354E0,6.170156956E0
1.065325552E0,1.401835060E1,6.337751389E0,5.870882034E0
1.067375285E0,1.382681370E1,6.261136532E0,5.722441196E0
1.069425051E0,1.344613647E1,6.129455566E0,5.432743073E0
1.071474851E0,1.307742882E1,5.973832607E0,5.145438671E0
1.073524684E0,1.289307499E1,5.887641430E0,5.004180908E0
1.075574584E0,1.255309868E1,5.669768810E0,4.747702122E0
1.077615250E0,1.219157410E1,5.442319870E0,4.508281708E0
1.079655850E0,1.186117458E1,5.250783443E0,4.285621166E0
1.081696450E0,1.170315742E1,5.157409668E0,4.197035789E0
1.083737083E0,1.138712215E1,4.994604111E0,4.053383350E0
1.085777783E0,1.105432892E1,4.857835293E0,3.988739967E0
1.087818449E0,1.091067600E1,4.807557106E0,3.943250179E0
1.089859182E0,1.050126839E1,4.651933670E0,3.888183594E0
1.091899848E0,1.037676907E1,4.592078686E0,3.885789394E0
1.093940481E0,1.025227070E1,4.525041103E0,3.878606796E0
1.095981047E0,1.000327396E1,4.393360138E0,3.861847401E0
1.098022013E0,9.780612946E0,4.276044369E0,3.871424198E0
1.100062546E0,9.675268173E0,4.206612587E0,3.873818398E0
1.102103046E0,9.495702744E0,4.070142746E0,3.845088005E0
1.104143579E0,9.361627579E0,3.933673382E0,3.792415380E0
1.106184079E0,9.296984673E0,3.861847401E0,3.761290789E0
1.108224612E0,9.227552414E0,3.730166197E0,3.720589399E0
1.110265112E0,9.189245224E0,3.629609823E0,3.667917013E0
1.112277345E0,9.148544312E0,3.521870613E0,3.632004023E0
1.114289578E0,9.143755913E0,3.481169224E0,3.617638826E0
1.116301778E0,9.122207642E0,3.394978046E0,3.584120035E0
1.118313944E0,9.155726433E0,3.349488258E0,3.543418407E0
1.120326110E0,9.160514832E0,3.335123062E0,3.521870613E0
1.122338276E0,9.206005096E0,3.332728863E0,3.478775024E0
1.124350409E0,9.287407875E0,3.366247654E0,3.473986626E0
1.126362575E0,9.340080261E0,3.380612850E0,3.476380825E0
1.128374741E0,9.457395554E0,3.409343243E0,3.462015629E0
1.130386941E0,9.596260071E0,3.457227230E0,3.459621429E0
1.133321941E0,9.775824547E0,3.497928619E0,3.485957623E0
1.135338374E0,9.981725693E0,3.550601006E0,3.533841610E0
1.137351374E0,1.015889740E1,3.569754839E0,3.567360640E0
1.139363374E0,1.024508858E1,3.567360640E0,3.579331636E0
1.141376374E0,1.041268253E1,3.581725836E0,3.629609823E0
1.143389374E0,1.057788277E1,3.586514235E0,3.711012602E0
1.145402124E0,1.065689087E1,3.576937437E0,3.768473387E0
1.147414724E0,1.081730270E1,3.552995205E0,3.897760391E0
1.149427224E0,1.098250294E1,3.517082214E0,4.029441357E0
1.151439652E0,1.114291382E1,3.488351822E0,4.209006786E0
1.153452277E0,1.120276928E1,3.488351822E0,4.299986362E0
1.155464832E0,1.131290245E1,3.505111217E0,4.517858505E0
1.157477432E0,1.135839176E1,3.514688015E0,4.774038315E0
1.159490159E0,1.137994003E1,3.557783842E0,4.906018734E0
1.161502909E0,1.141824722E1,3.603273630E0,5.178957462E0
1.163515678E0,1.141585255E1,3.641580820E0,5.430348873E0
1.165528392E0,1.142303562E1,3.658340216E0,5.550058842E0
1.167541125E0,1.139191055E1,3.696647406E0,5.751171589E0
1.169553812E0,1.139191055E1,3.703830004E0,5.928342819E0
1.171566517E0,1.138233376E1,3.713406801E0,6.004957199E0
1.173579128E0,1.135360336E1,3.706224203E0,6.146214962E0
1.175591706E0,1.132487297E1,3.689464808E0,6.277895927E0
1.177604256E0,1.130093098E1,3.675099611E0,6.332962990E0
1.179624827E0,1.123868179E1,3.624821424E0,6.440701962E0
1.181645054E0,1.117882729E1,3.596091032E0,6.558017731E0
1.183664880E0,1.108784771E1,3.584120035E0,6.663362503E0
1.185684380E0,1.104475212E1,3.562572241E0,6.720823288E0
1.187703580E0,1.090349388E1,3.514688015E0,6.797437668E0
1.189722541E0,1.078138924E1,3.471592426E0,6.864475727E0
1.191741207E0,1.067843914E1,3.457227230E0,6.883629322E0
1.193759599E0,1.048690319E1,3.416525841E0,6.912359715E0
1.195777805E0,1.029297256E1,3.366247654E0,6.907571316E0
1.197795838E0,1.019002151E1,3.344699860E0,6.895600319E0
1.199813904E0,9.957783699E0,3.280056238E0,6.847716331E0
1.201831904E0,9.759065628E0,3.217807055E0,6.763918877E0
1.203849904E0,9.557952881E0,3.174711466E0,6.677727699E0
1.205867937E0,9.464578629E0,3.162740469E0,6.629843712E0
1.207885937E0,9.277831078E0,3.105279684E0,6.524498940E0
1.209903937E0,9.153332710E0,3.057395458E0,6.392817974E0
1.211921937E0,9.067141533E0,3.047818661E0,6.256348133E0
1.213941603E0,9.038411140E0,3.057395458E0,6.184522152E0
1.215959503E0,9.002497673E0,3.086126089E0,6.048052788E0
1.217977336E0,8.990526199E0,3.107673883E0,5.978621006E0
1.219995069E0,8.940248489E0,3.153163671E0,5.825392246E0
1.222012769E0,8.894758224E0,3.205836058E0,5.708076000E0
1.224030435E0,8.866027832E0,3.244143248E0,5.664980412E0
1.226048135E0,8.798990250E0,3.318363667E0,5.542876244E0
1.228065768E0,8.743924141E0,3.390189648E0,5.449502468E0
1.230083368E0,8.648156166E0,3.421314240E0,5.401618481E0
1.232100934E0,8.595483780E0,3.481169224E0,5.293879032E0
1.234118567E0,8.478167534E0,3.526659012E0,5.193322659E0
1.236136200E0,8.403946877E0,3.548206806E0,5.092766285E0
1.238153833E0,8.360851288E0,3.560178041E0,5.044882298E0
1.240165866E0,8.296208382E0,3.557783842E0,4.963479519E0
1.242177899E0,8.281843185E0,3.564966440E0,4.869806290E0
1.244189999E0,8.265083313E0,3.574543238E0,4.833893299E0
1.246202132E0,8.279448509E0,3.624821424E0,4.797980309E0
1.248214265E0,8.286631584E0,3.665522814E0,4.747702122E0
1.250226398E0,8.284236908E0,3.689464808E0,4.728548527E0
1.252238564E0,8.289025307E0,3.754108191E0,4.690241337E0
1.254250730E0,8.260294914E0,3.847482204E0,4.649539471E0
1.256262830E0,8.253112793E0,3.878606796E0,4.623203278E0
1.258274896E0,8.195652008E0,3.964797974E0,4.568136692E0
1.260296262E0,8.140584946E0,4.036623955E0,4.534617901E0
1.262317695E0,8.016086578E0,4.084507942E0,4.508281708E0
1.264339128E0,7.953837395E0,4.086902142E0,4.496310711E0
1.266360561E0,7.855675220E0,4.082113743E0,4.486733913E0
1.268382094E0,7.788637638E0,4.060565948E0,4.484339714E0
1.270403694E0,7.723993778E0,4.043806553E0,4.491522312E0
1.272425327E0,7.642591000E0,4.015076160E0,4.513070107E0
1.274445227E0,7.609072208E0,3.998316765E0,4.525041103E0
1.276466960E0,7.570765018E0,3.995922565E0,4.548983097E0
1.278488793E0,7.534852028E0,3.991134167E0,4.558559895E0
1.280510693E0,7.448660851E0,3.991134167E0,4.601655483E0
1.282532626E0,7.343316078E0,4.024652958E0,4.683058739E0
1.284554592E0,7.281066418E0,4.031835556E0,4.735731125E0
1.286576558E0,7.111078262E0,4.041412354E0,4.829104900E0
1.288598591E0,6.905177116E0,4.046200752E0,4.906018734E0
1.290620657E0,6.799831867E0,4.048594952E0,4.927566528E0
1.292642757E0,6.569988728E0,4.031835556E0,4.925172329E0
1.294693423E0,6.275501728E0,3.988739967E0,4.836287498E0
1.296744156E0,6.186916351E0,3.974374771E0,4.802768707E0
1.298794922E0,6.004957199E0,3.950432777E0,4.745307922E0
1.300845722E0,5.887641430E0,3.936067581E0,4.671087742E0
1.302896522E0,5.837363243E0,3.940855980E0,4.623203278E0
1.304947355E0,5.751171589E0,3.948038578E0,4.529829502E0
1.306998188E0,5.662586212E0,3.981557369E0,4.429273129E0
1.309049088E0,5.619490623E0,3.993528366E0,4.383783340E0
1.311100021E0,5.526116848E0,4.058171749E0,4.266467571E0
1.313150987E0,5.408801079E0,4.129997730E0,4.146757126E0
1.315202020E0,5.353734493E0,4.158728123E0,4.091690540E0
1.317253086E0,5.260360241E0,4.220977783E0,3.969586372E0
1.319304186E0,5.171774864E0,4.249708176E0,3.835511208E0
1.321345952E0,5.116708279E0,4.273650169E0,3.699041605E0
1.323387685E0,5.107131481E0,4.278438568E0,3.627215624E0
1.325429418E0,5.116708279E0,4.299986362E0,3.488351822E0
1.327471151E0,5.143044472E0,4.343081951E0,3.359065056E0
1.329512851E0,5.174169064E0,4.383783340E0,3.287238836E0
1.331554517E0,5.269937038E0,4.477157116E0,3.169923067E0
1.333596217E0,5.325003624E0,4.592078686E0,3.043030262E0
1.335637883E0,5.351340294E0,4.661510944E0,2.992752075E0
1.337679483E0,5.415983677E0,4.776432514E0,2.889801502E0
1.339720949E0,5.487809658E0,4.893748283E0,2.777273893E0
1.341763182E0,5.540482044E0,4.949114323E0,2.724601507E0
1.343804615E0,5.700893402E0,5.020940304E0,2.604891539E0
1.345846015E0,5.957073212E0,5.097554684E0,2.511517525E0
1.347887348E0,6.234800339E0,5.143044472E0,2.442085743E0
1.349928648E0,6.395212173E0,5.257966042E0,2.410961151E0
1.351970014E0,6.720823288E0,5.439925671E0,2.379836559E0
1.354011380E0,7.017704487E0,5.631461620E0,2.339135170E0
1.356024180E0,7.161356449E0,5.739200592E0,2.327163935E0
1.358036946E0,7.405565262E0,5.949890614E0,2.343923569E0
1.360049712E0,7.556399822E0,6.134243965E0,2.363077164E0
1.362062512E0,7.599495411E0,6.213252544E0,2.377442360E0
1.364075312E0,7.628225803E0,6.335357189E0,2.418143749E0
1.366088078E0,7.561188221E0,6.411971569E0,2.466027737E0
1.368100811E0,7.501333237E0,6.426336765E0,2.509123325E0
1.370113477E0,7.321768284E0,6.411971569E0,2.583343744E0
1.372126077E0,7.087136269E0,6.342539787E0,2.695871115E0
1.374138643E0,6.785466671E0,6.234800339E0,2.798821688E0
1.377075643E0,6.385635376E0,6.105513573E0,2.944868088E0
1.379077374E0,5.945102215E0,5.909189224E0,3.114856482E0
1.381090374E0,5.727229595E0,5.794267178E0,3.198653460E0
1.383103374E0,5.291484833E0,5.564424038E0,3.390189648E0
1.385116374E0,4.855441093E0,5.327397823E0,3.557783842E0
1.387129374E0,4.659116745E0,5.212476254E0,3.634398222E0
1.389142124E0,4.278438568E0,5.008969307E0,3.806780815E0
1.391154724E0,3.921702385E0,4.807557106E0,3.964797974E0
1.393167224E0,3.608062029E0,4.730942726E0,4.039018154E0
1.395179652E0,3.349488258E0,4.575319290E0,4.180276394E0
1.397192152E0,3.220201254E0,4.544194698E0,4.189853191E0
1.399204707E0,3.007117271E0,4.505887508E0,4.192247391E0
1.401217307E0,2.923320293E0,4.503493309E0,4.177882195E0
1.403229943E0,2.772485495E0,4.508281708E0,4.101267338E0
1.405242526E0,2.674323320E0,4.546588898E0,3.995922565E0
1.407255218E0,2.626439333E0,4.580107689E0,3.916913986E0
1.409267860E0,2.537853718E0,4.647145271E0,3.766079187E0
1.411280526E0,2.480392933E0,4.716577530E0,3.608062029E0
1.413293213E0,2.451662540E0,4.742913723E0,3.531447411E0
1.415305977E0,2.394201756E0,4.795586109E0,3.380612850E0
1.417318588E0,2.379836559E0,4.838681698E0,3.232172251E0
1.419331166E0,2.389413357E0,4.865017891E0,3.167528868E0
1.421343716E0,2.425326347E0,4.932354927E0,3.035847664E0
1.423364716E0,2.513911724E0,4.985027313E0,2.913743496E0
1.425385488E0,2.659958124E0,5.056853294E0,2.837129116E0
1.427405922E0,2.736572504E0,5.097554684E0,2.808398485E0
1.429426088E0,2.885013103E0,5.234024048E0,2.782062292E0
1.431445968E0,3.052607059E0,5.380070686E0,2.774879694E0
1.433465621E0,3.107673883E0,5.447108269E0,2.755726099E0
1.435484954E0,3.189076662E0,5.617096424E0,2.717418909E0
1.437504061E0,3.213018656E0,5.779901981E0,2.676717520E0
1.439522957E0,3.222595453E0,5.890035629E0,2.616862535E0
1.441541657E0,3.217807055E0,5.928342819E0,2.580949545E0
1.443560390E0,3.239354849E0,5.983409405E0,2.487575531E0
1.445579123E0,3.234566450E0,5.985803604E0,2.382230759E0
1.447597889E0,3.251325846E0,5.981015205E0,2.312798738E0
1.449616689E0,3.301604033E0,5.995380402E0,2.164358377E0
1.451635555E0,3.351882458E0,5.992986202E0,2.006340981E0
1.453654488E0,3.371036053E0,5.990592003E0,1.941697598E0
1.455673488E0,3.349488258E0,6.009745598E0,1.723825216E0
1.457694221E0,3.313575268E0,6.031293392E0,1.666364431E0
1.459713221E0,3.260902643E0,6.048052788E0,1.613691926E0
1.461732221E0,3.143586874E0,6.050446987E0,1.510741234E0
1.463751254E0,2.990357876E0,6.052841187E0,1.448492050E0
1.465770320E0,2.786850691E0,6.007351398E0,1.367089152E0
1.467789353E0,2.688688517E0,5.985803604E0,1.345541358E0
1.469808453E0,2.420537949E0,5.925948620E0,1.304839969E0
1.471827553E0,2.118868589E0,5.842151642E0,1.273715258E0
1.473846653E0,1.946485996E0,5.767930984E0,1.242590666E0
1.475865719E0,1.630451322E0,5.590760231E0,1.213860273E0
1.477884885E0,1.331176162E0,5.415983677E0,1.185129881E0
1.479904085E0,1.189918280E0,5.344157696E0,1.151610970E0
1.481923318E0,8.619126081E-1,5.200505257E0,1.094150186E0
1.483936618E0,5.099649429E-1,5.054459095E0,1.043871999E0
1.485949851E0,3.303998411E-1,4.996998310E0,1.015141487E0
1.487963117E0,1.436521020E-2,4.879383087E0,9.648633003E-1
1.489976350E0,-3.064578176E-1,4.757278919E0,9.002198577E-1
1.491989650E0,-5.937620401E-1,4.699818134E0,8.643068075E-1
1.494002950E0,-7.278373241E-1,4.606443882E0,8.475474119E-1
1.496016350E0,-9.552865028E-1,4.534617901E0,8.068459630E-1
1.498029716E0,-1.137245774E0,4.479551315E0,7.709329724E-1
1.500043049E0,-1.218648672E0,4.455609322E0,7.398083210E-1
1.502056349E0,-1.355118155E0,4.441244125E0,7.110779285E-1
1.504078282E0,-1.482010841E0,4.443638325E0,7.038952708E-1
1.506100248E0,-1.592144132E0,4.448426723E0,6.919242740E-1
1.508122148E0,-1.654393315E0,4.465186119E0,6.775590777E-1
1.510144014E0,-1.766920805E0,4.505887508E0,6.512228847E-1
1.512165847E0,-1.853112102E0,4.522646904E0,5.841852427E-1
1.514187647E0,-1.908178806E0,4.525041103E0,5.458779931E-1
1.516209347E0,-1.963245392E0,4.486733913E0,4.237737060E-1
1.518230547E0,-1.960851192E0,4.484339714E0,3.734954596E-1
1.520253513E0,-1.963245392E0,4.481945515E0,3.232172430E-1
1.522276446E0,-1.980004787E0,4.477157116E0,2.346317619E-1
1.524299346E0,-1.996764183E0,4.467580318E0,1.628057212E-1
1.526322246E0,-2.051830769E0,4.484339714E0,8.379705995E-2
1.528345112E0,-2.061407566E0,4.489128113E0,3.830722719E-2
1.530367945E0,-2.075772762E0,4.498704910E0,-7.422025502E-2
1.532390811E0,-2.123656988E0,4.503493309E0,-1.819593310E-1
1.534413677E0,-2.169146776E0,4.501099110E0,-2.322375625E-1
1.536436510E0,-2.327163935E0,4.489128113E0,-3.016694188E-1
1.538487643E0,-2.504334927E0,4.419696331E0,-3.758896589E-1
1.540538843E0,-2.676717520E0,4.311957359E0,-4.572925270E-1
1.542590043E0,-2.863465309E0,4.213795185E0,-5.817909837E-1
1.544641343E0,-2.956839085E0,4.163516521E0,-6.488286853E-1
1.546692576E0,-3.105279684E0,4.050989151E0,-8.259995580E-1
1.548743776E0,-3.236960649E0,3.933673382E0,-1.005564690E0
1.550794976E0,-3.332728863E0,3.885789394E0,-1.156399369E0
1.552846109E0,-3.385401249E0,3.785232782E0,-1.233013868E0
1.554897209E0,-3.531447411E0,3.675099611E0,-1.369483352E0
1.556948275E0,-3.672705412E0,3.548206806E0,-1.479616642E0
1.558999341E0,-3.746925592E0,3.497928619E0,-1.527500629E0
1.561050407E0,-3.909731388E0,3.366247654E0,-1.606509328E0
1.563101473E0,-4.062960148E0,3.210624456E0,-1.683123827E0
1.565143873E0,-4.132391930E0,3.119644880E0,-1.719036818E0
1.567186239E0,-4.285621166E0,2.935291290E0,-1.735796213E0
1.569228672E0,-4.448426723E0,2.734178305E0,-1.702277422E0
1.571271138E0,-4.534617901E0,2.643198729E0,-1.685518026E0
1.573313604E0,-4.690241337E0,2.446874142E0,-1.601720929E0
1.575356037E0,-4.833893299E0,2.269703150E0,-1.489193439E0
1.577398537E0,-4.970662117E0,2.106897593E0,-1.357512355E0
1.579439770E0,-5.037699699E0,2.037465572E0,-1.278503656E0
1.581480936E0,-5.152621269E0,1.900996208E0,-1.084573388E0
1.583522069E0,-5.279513836E0,1.764526606E0,-8.834604025E-1
1.585564335E0,-5.325003624E0,1.675941229E0,-7.972691655E-1
1.587605501E0,-5.454290867E0,1.520318031E0,-6.320692301E-1
1.589646701E0,-5.686528206E0,1.338358760E0,-4.979939461E-1
1.591687967E0,-5.808632374E0,1.252167463E0,-4.405331016E-1
1.593729200E0,-6.064812183E0,1.063025594E0,-3.447650373E-1
1.595770433E0,-6.368875980E0,8.714894056E-1,-2.777273953E-1
1.597811733E0,-6.534075737E0,7.661445141E-1,-2.418143749E-1
1.599824766E0,-6.871658325E0,5.482721925E-1,-1.963245422E-1
1.601837799E0,-7.249941826E0,3.567360640E-1,-2.154781520E-1
1.603850832E0,-7.441478252E0,2.657563984E-1,-2.370259613E-1
1.605863832E0,-7.855675220E0,5.267243832E-2,-3.160346150E-1
1.607876898E0,-8.265083313E0,-1.556231081E-1,-3.998316824E-1
1.609889998E0,-8.662521362E0,-3.782838583E-1,-4.979939461E-1
1.611903098E0,-8.866027832E0,-4.908113480E-1,-5.602431893E-1
1.613916231E0,-9.282619476E0,-7.134721279E-1,-7.230489254E-1
1.615929397E0,-9.735123634E0,-9.217676520E-1,-9.097966552E-1
1.617942597E0,-9.986514091E0,-1.012747288E0,-1.012747288E0
1.619984197E0,-1.075026512E1,-1.268926859E0,-1.331176162E0
1.622025897E0,-1.099926186E1,-1.362300754E0,-1.458068848E0
1.624067630E0,-1.142782402E1,-1.544260144E0,-1.747767210E0
1.626109396E0,-1.183483791E1,-1.731007814E0,-2.059013367E0
1.628151196E0,-1.224903488E1,-1.824381709E0,-2.401384354E0
1.630192962E0,-1.245254230E1,-2.003946781E0,-2.568978310E0
1.632234728E0,-1.286913300E1,-2.202665567E0,-2.928108692E0
1.634276461E0,-1.327614784E1,-2.372653961E0,-3.311181068E0
1.636318227E0,-1.347247219E1,-2.468421936E0,-3.509899616E0
1.638360027E0,-1.408538818E1,-2.741360903E0,-4.158728123E0
1.640403760E0,-1.432241344E1,-2.839523315E0,-4.386177540E0
1.642447526E0,-1.456662273E1,-2.940079689E0,-4.627991676E0
1.644491326E0,-1.503379059E1,-3.155557871E0,-5.178957462E0
1.646533959E0,-1.554615021E1,-3.402160645E0,-5.751171589E0
1.648577692E0,-1.579993534E1,-3.538630009E0,-6.064812183E0
1.650621425E0,-1.627877617E1,-3.835511208E0,-6.720823288E0
1.652665091E0,-1.675282860E1,-4.094084740E0,-7.412747860E0
1.654708724E0,-1.719336128E1,-4.216189384E0,-8.085518837E0
1.656752390E0,-1.739447403E1,-4.450820923E0,-8.423100471E0
1.658796023E0,-1.774642181E1,-4.639962673E0,-9.074323654E0
1.660839523E0,-1.809358025E1,-4.824316502E0,-9.620202065E0
1.662882889E0,-1.823005104E1,-4.946720123E0,-9.850045204E0
1.664926189E0,-1.847904778E1,-5.260360241E0,-1.023551178E1
1.666972689E0,-1.860833359E1,-5.655403614E0,-1.058506489E1
1.669019155E0,-1.863945961E1,-5.892429829E0,-1.071914005E1
1.671065588E0,-1.860354614E1,-6.371270180E0,-1.092743587E1
1.673111954E0,-1.848144150E1,-6.847716331E0,-1.101602173E1
1.675158287E0,-1.825399208E1,-7.082347870E0,-1.100405025E1
1.677204587E0,-1.810076332E1,-7.542034626E0,-1.084603310E1
1.679250820E0,-1.774402809E1,-8.040028572E0,-1.056351757E1
1.681268653E0,-1.734180069E1,-8.633790970E0,-1.017805099E1
1.683286419E0,-1.711674690E1,-8.980949402E0,-9.931447983E0
1.685304152E0,-1.660199356E1,-9.845256805E0,-9.373599052E0
1.687321818E0,-1.601301956E1,-1.085800362E1,-8.674491882E0
1.689339518E0,-1.570177364E1,-1.141345882E1,-8.293813705E0
1.691357184E0,-1.500745487E1,-1.265365505E1,-7.477391243E0
1.693374850E0,-1.424101067E1,-1.400398540E1,-6.596324921E0
1.695392550E0,-1.384117889E1,-1.471296787E1,-6.148609161E0
1.697410250E0,-1.296490192E1,-1.623567963E1,-5.231629848E0
1.699427916E0,-1.202637482E1,-1.789486122E1,-4.314351559E0
1.701445849E0,-1.090349388E1,-1.969530106E1,-3.447650433E0
1.703461515E0,-1.024030018E1,-2.067453003E1,-3.026270866E0
1.705477215E0,-8.664915085E0,-2.273354340E1,-2.176329374E0
1.707492881E0,-6.565200329E0,-2.497481537E1,-1.357512355E0
1.709508547E0,-5.353734493E0,-2.609769630E1,-9.385270476E-1
1.711524180E0,-2.659958124E0,-2.827642059E1,-8.619125932E-2
1.713539846E0,3.184288144E-1,-3.023248291E1,7.852981687E-1
1.715555546E0,1.932120800E0,-3.109918404E1,1.199495077E0
1.717571179E0,5.437531471E0,-3.266738510E1,2.056619167E0
1.719586812E0,9.390357971E0,-3.406799316E1,2.968810081E0
1.721602512E0,1.161935997E1,-3.470754623E1,3.462015629E0
1.723618245E0,1.666424179E1,-3.584479141E1,4.596867085E0
1.725634045E0,2.256355476E1,-3.646249390E1,6.016928196E0
1.727646611E0,2.579123878E1,-3.643615723E1,6.876446724E0
1.729659144E0,3.261950302E1,-3.563170624E1,8.940248489E0
1.731671644E0,3.985986710E1,-3.359873199E1,1.143500614E1
1.733684210E0,4.742584229E1,-3.183899117E1,1.407102299E1
1.735696776E0,5.110094452E1,-2.692848396E1,1.532109547E1
1.737709342E0,5.851847839E1,-2.013583565E1,1.759798050E1
1.739721942E0,6.571813965E1,-1.192581749E1,1.965699387E1
1.741734475E0,6.911312103E1,-7.486968040E0,2.064579964E1
1.743746941E0,7.495288086E1,1.417367458E0,2.253961372E1
1.745759374E0,7.755297852E1,9.495702744E0,2.434005356E1
1.747781074E0,7.821138763E1,1.617821884E1,2.571941185E1
1.749802740E0,7.832151794E1,1.881184196E1,2.614797401E1
1.751824473E0,7.840292358E1,2.247975922E1,2.689496613E1
1.753846273E0,7.842446899E1,2.422752571E1,2.772575378E1
1.755868139E0,7.842686462E1,2.451512909E1,2.818544006E1
1.757890039E0,7.821856689E1,2.416767120E1,2.929635048E1
1.759911939E0,7.292948151E1,2.273114967E1,3.058682442E1
1.761933072E0,7.292948151E1,2.166812325E1,3.119973946E1
1.763956505E0,6.679553223E1,1.903210831E1,3.213826752E1
1.765979938E0,5.995739365E1,1.595795250E1,3.238486862E1
1.768003471E0,5.310728455E1,1.266562653E1,3.158520699E1
1.770027004E0,4.979370880E1,1.101602173E1,3.073047638E1
1.772050537E0,4.347032166E1,7.850886822E0,2.828360176E1
1.774074003E0,3.751833725E1,4.985027313E0,2.531958008E1
1.776097503E0,3.470515060E1,3.687070608E0,2.374868584E1
1.778121003E0,2.938254166E1,1.407790542E0,2.057397461E1
1.780144536E0,2.444300461E1,-4.668693244E-1,1.746151161E1
1.782196469E0,1.999218369E1,-1.869871497E0,1.450676727E1
1.784248469E0,1.613512421E1,-2.724601507E0,1.177977180E1
1.786300469E0,1.446127796E1,-2.954444885E0,1.052042198E1
1.788352469E0,1.170076275E1,-3.090914488E0,8.277054787E0
1.790404502E0,9.850045204E0,-2.815581083E0,6.433519363E0
1.792456502E0,8.856451035E0,-2.329558372E0,5.061641693E0
1.794508468E0,8.650549889E0,-2.020706177E0,4.544194698E0
1.796560401E0,8.719982147E0,-1.300051570E0,3.864241600E0
1.798612301E0,9.378387451E0,-4.525041282E-1,3.684676409E0
1.800664267E0,9.897929192E0,1.197100803E-2,3.758896589E0
1.802716267E0,1.126980686E1,1.110909581E0,4.173093796E0
1.804768367E0,1.294335365E1,2.339135170E0,4.920383930E0
1.806820567E0,1.385315037E1,2.964021683E0,5.415983677E0
1.808863533E0,1.563234138E1,4.206612587E0,6.586748123E0
1.810906499E0,1.730828285E1,5.317821026E0,7.838915825E0
1.812949465E0,1.807921600E1,5.832574844E0,8.439860344E0
1.814992365E0,1.946545792E1,6.773495674E0,9.519645691E0
1.817035165E0,2.060509872E1,7.580341816E0,1.047493172E1
1.819077931E0,2.140715599E1,8.214805603E0,1.133444977E1
1.821120697E0,2.189317894E1,8.590695381E0,1.212693119E1
1.823161930E0,2.200570679E1,8.674491882E0,1.248127270E1
1.825203096E0,2.196261024E1,8.667309761E0,1.307742882E1
1.827244229E0,2.182614136E1,8.581118584E0,1.332403183E1
1.829286562E0,2.138560867E1,8.272266388E0,1.368555641E1
1.831327595E0,2.066016579E1,7.886799812E0,1.387469769E1
1.833368628E0,2.023399734E1,7.678503990E0,1.391300488E1
1.835409728E0,1.928589249E1,7.264307022E0,1.388906288E1
1.837450761E0,1.825878143E1,6.859687328E0,1.371668053E1
1.839491827E0,1.773205566E1,6.663362503E0,1.357781696E1
1.841532960E0,1.664987755E1,6.304232121E0,1.322347546E1
1.843545726E0,1.560839939E1,5.942708015E0,1.270153904E1
1.845558492E0,1.466717911E1,5.767930984E0,1.205271053E1
1.847571292E0,1.424340534E1,5.459079266E0,1.167921543E1
1.849584125E0,1.346529007E1,5.188534260E0,1.087236881E1
1.851596925E0,1.280209541E1,4.987421513E0,9.962572098E0
1.853609825E0,1.253873348E1,4.917989731E0,9.498097420E0
1.855622791E0,1.210059452E1,4.817133904E0,8.540416718E0
1.857635791E0,1.178934860E1,4.793191910E0,7.563582420E0
1.859648857E0,1.167682076E1,4.797980309E0,7.099107265E0
1.861661857E0,1.148528481E1,4.841075897E0,6.227617741E0
1.864593857E0,1.127459526E1,4.901230335E0,5.442319870E0
1.866602374E0,1.122910500E1,4.999392509E0,4.726154327E0
1.868614374E0,1.113094330E1,5.068824291E0,4.084507942E0
1.870628374E0,1.101602173E1,5.116708279E0,3.517082214E0
1.872641874E0,1.094658947E1,5.133467674E0,3.265691042E0
1.874654874E0,1.081490803E1,5.126285076E0,2.808398485E0
1.876668124E0,1.066646767E1,5.092766285E0,2.430114746E0
1.878681324E0,1.057548809E1,5.076006889E0,2.257732153E0
1.880694490E0,1.032649136E1,5.035305500E0,1.970427990E0
1.882707632E0,1.007749462E1,4.973056316E0,1.745373011E0
1.884725382E0,9.917082787E0,4.932354927E0,1.647210717E0
1.886742715E0,9.644144058E0,4.821922302E0,1.491587639E0
1.888759615E0,9.344868660E0,4.692635536E0,1.400607944E0
1.890776160E0,9.040804863E0,4.620809078E0,1.343147159E0
1.892792493E0,8.897152901E0,4.484339714E0,1.333570361E0
1.894808493E0,8.626607895E0,4.352658749E0,1.362300754E0
1.896824278E0,8.358457565E0,4.194641590E0,1.422155857E0
1.898839878E0,8.241141319E0,4.106055737E0,1.472434044E0
1.900855315E0,8.037634850E0,3.976768970E0,1.575384736E0
1.902870550E0,7.841310024E0,3.845088005E0,1.735796213E0
1.904885550E0,7.767089367E0,3.782838583E0,1.836352706E0
1.906900339E0,7.666532993E0,3.675099611E0,2.068590164E0
1.908914939E0,7.606678009E0,3.605667830E0,2.341529369E0
1.910933653E0,7.585130215E0,3.569754839E0,2.497152328E0
1.912952198E0,7.592312813E0,3.519476414E0,2.791639090E0
1.914970458E0,7.644985199E0,3.476380825E0,3.100491285E0
1.916988458E0,7.740753174E0,3.447650433E0,3.404554844E0
1.919006258E0,7.788637638E0,3.430891037E0,3.550601006E0
1.921023796E0,7.915530205E0,3.416525841E0,3.811569214E0
1.923041203E0,8.061576843E0,3.409343243E0,4.031835556E0
1.925058417E0,8.166921616E0,3.409343243E0,4.120420933E0
1.927075451E0,8.382399559E0,3.414131641E0,4.292803764E0
1.929092317E0,8.571541786E0,3.430891037E0,4.465186119E0
1.931109117E0,8.676886559E0,3.454833031E0,4.544194698E0
1.933125850E0,8.887576103E0,3.514688015E0,4.690241337E0
1.935142550E0,9.067141533E0,3.574543238E0,4.841075897E0
1.937159183E0,9.129390717E0,3.620033026E0,4.906018734E0
1.939175783E0,9.265859604E0,3.682282209E0,5.004180908E0
1.941192349E0,9.375992775E0,3.744531393E0,5.073612690E0
1.943208849E0,9.474155426E0,3.763684988E0,5.121496677E0
1.945225882E0,9.529222488E0,3.758896589E0,5.140650272E0
1.947240948E0,9.639355659E0,3.718195200E0,5.152621269E0
1.949255981E0,9.811738014E0,3.694253206E0,5.162198067E0
1.951270981E0,9.871592522E0,3.682282209E0,5.155015469E0
1.953285914E0,1.002721596E1,3.684676409E0,5.164592266E0
1.955300880E0,1.021635818E1,3.727771997E0,5.181351662E0
1.957315846E0,1.031451988E1,3.778050184E0,5.186140060E0
1.959330812E0,1.054436398E1,3.897760391E0,5.193322659E0
1.961345778E0,1.072153473E1,4.034229755E0,5.186140060E0
1.963360744E0,1.080054283E1,4.098873138E0,5.186140060E0
1.965375744E0,1.092982960E1,4.199429989E0,5.183745861E0
1.967390744E0,1.101602173E1,4.304774761E0,5.183745861E0
1.969405777E0,1.108545303E1,4.338293552E0,5.202899456E0
1.971417810E0,1.112615490E1,4.376600742E0,5.214870453E0
1.973429776E0,1.116925049E1,4.398148537E0,5.257966042E0
1.975441742E0,1.118840408E1,4.388571739E0,5.308244228E0
1.977453742E0,1.118840408E1,4.355052948E0,5.341763496E0
1.979465675E0,1.120516300E1,4.288015366E0,5.423166275E0
1.981477608E0,1.116685581E1,4.249708176E0,5.521328449E0
1.983489474E0,1.115488529E1,4.242525578E0,5.574000835E0
1.985501274E0,1.111897182E1,4.225766182E0,5.698499203E0
1.987513007E0,1.109981823E1,4.209006786E0,5.830180645E0
1.989524640E0,1.108784771E1,4.189853191E0,5.904400826E0
1.991545540E0,1.107587624E1,4.156333923E0,6.057629585E0
1.993566506E0,1.106629944E1,4.110844135E0,6.179733753E0
1.995587539E0,1.105911732E1,4.058171749E0,6.306626320E0
1.997608639E0,1.106151104E1,4.027047157E0,6.364087582E0
1.999629739E0,1.105672264E1,3.969586372E0,6.457461357E0
2.001650872E0,1.106151104E1,3.909731388E0,6.569988728E0
2.003672038E0,1.108066463E1,3.852270603E0,6.641814709E0
2.005691404E0,1.107348251E1,3.821146011E0,6.672939301E0
2.007712704E0,1.108066463E1,3.813963413E0,6.773495674E0
2.009734004E0,1.108305931E1,3.816357613E0,6.907571316E0
2.011755304E0,1.108784771E1,3.828328609E0,6.957849503E0
2.013776604E0,1.108545303E1,3.861847401E0,7.060800076E0
2.015797837E0,1.109024143E1,3.885789394E0,7.158962250E0
2.017819037E0,1.108545303E1,3.909731388E0,7.192481041E0
2.019840203E0,1.110700130E1,3.969586372E0,7.245153427E0
2.021861303E0,1.112376022E1,4.015076160E0,7.316979885E0
2.023882403E0,1.112376022E1,4.034229755E0,7.336133480E0
2.025931803E0,1.115727901E1,4.077325344E0,7.357681274E0
2.027981269E0,1.117643261E1,4.101267338E0,7.357681274E0
2.030030735E0,1.120755768E1,4.165910721E0,7.364863873E0
2.032080268E0,1.123868179E1,4.240131378E0,7.345710278E0
2.034129768E0,1.126023006E1,4.319139957E0,7.340921879E0
2.036179301E0,1.125304699E1,4.362235546E0,7.328950882E0
2.038228834E0,1.121473980E1,4.448426723E0,7.300220490E0
2.040278367E0,1.117643261E1,4.508281708E0,7.230788231E0
2.042328000E0,1.115009689E1,4.527435303E0,7.178115845E0
2.044377633E0,1.105432892E1,4.553771496E0,7.070376873E0
2.046427399E0,1.094658947E1,4.539406300E0,6.921936512E0
2.048477265E0,1.088912868E1,4.529829502E0,6.854898930E0
2.050527231E0,1.081251431E1,4.493916512E0,6.730400085E0
2.052567964E0,1.073589993E1,4.460397720E0,6.615478516E0
2.054608697E0,1.073111153E1,4.455609322E0,6.562806129E0
2.056649397E0,1.075265884E1,4.446032524E0,6.502951145E0
2.058690130E0,1.079096603E1,4.455609322E0,6.459855556E0
2.060730863E0,1.085082150E1,4.474762917E0,6.400000572E0
2.062771563E0,1.086997509E1,4.522646904E0,6.376058578E0
2.064812263E0,1.099447346E1,4.673481941E0,6.280290127E0
2.066852829E0,1.103996372E1,4.726154327E0,6.246771336E0
2.068893295E0,1.108066463E1,4.781220913E0,6.198887348E0
2.070933695E0,1.117882729E1,4.884171486E0,6.107907772E0
2.072975661E0,1.124825859E1,4.961085320E0,5.997774601E0
2.075015994E0,1.126741219E1,4.982633114E0,5.935525417E0
2.077056360E0,1.127938366E1,5.028122902E0,5.832574844E0
2.079096693E0,1.127938366E1,5.042488098E0,5.741594791E0
2.081137026E0,1.127220058E1,5.052064896E0,5.705681801E0
2.083177359E0,1.121713448E1,5.085583687E0,5.653009415E0
2.085217625E0,1.113333702E1,5.099948883E0,5.631461620E0
2.087229525E0,1.107348251E1,5.111919880E0,5.621884823E0
2.089241325E0,1.094898319E1,5.159803867E0,5.607519627E0
2.091253091E0,1.078378391E1,5.186140060E0,5.562029839E0
2.093264824E0,1.060661316E1,5.176563263E0,5.535693645E0
2.095276557E0,1.049887371E1,5.155015469E0,5.514145851E0
2.097288257E0,1.026424217E1,5.099948883E0,5.473444462E0
2.099299923E0,1.003679276E1,5.018546104E0,5.392041683E0
2.101311656E0,9.919476509E0,4.968267918E0,5.346551895E0
2.103323322E0,9.694421768E0,4.867412090E0,5.272331238E0
2.105334955E0,9.433453560E0,4.776432514E0,5.193322659E0
2.107374955E0,9.184456825E0,4.692635536E0,5.150227070E0
2.109414955E0,8.937853813E0,4.606443882E0,5.111919880E0
2.111454955E0,8.813355446E0,4.563348293E0,5.102343082E0
2.113494955E0,8.566753387E0,4.484339714E0,5.102343082E0
2.115534921E0,8.315361977E0,4.424484730E0,5.135861874E0
2.117574887E0,8.052000046E0,4.352658749E0,5.166986465E0
2.119614720E0,7.922712803E0,4.326322556E0,5.174169064E0
2.121654553E0,7.723993778E0,4.292803764E0,5.198111057E0
2.123694353E0,7.544428825E0,4.264073372E0,5.229235649E0
2.125734119E0,7.448660851E0,4.252102375E0,5.253177643E0
2.127775285E0,7.434295654E0,4.254496574E0,5.265148640E0
2.129816518E0,7.431901455E0,4.261679173E0,5.250783443E0
2.131857818E0,7.439084053E0,4.280832767E0,5.241206646E0
2.133897518E0,7.489362240E0,4.343081951E0,5.198111057E0
2.135938851E0,7.542034626E0,4.414907932E0,5.128679276E0
2.137980251E0,7.589918613E0,4.460397720E0,5.083189487E0
2.140021717E0,7.654561996E0,4.563348293E0,4.977844715E0
2.142063183E0,7.709628582E0,4.635174274E0,4.829104900E0
2.144104683E0,7.743147373E0,4.733336926E0,4.654327869E0
2.146146283E0,7.745541573E0,4.776432514E0,4.565742493E0
2.148187883E0,7.745541573E0,4.857835293E0,4.383783340E0
2.150229549E0,7.714416981E0,4.898836136E0,4.211400986E0
2.152271215E0,7.697657585E0,4.920383930E0,4.132391930E0
2.154315848E0,7.712022781E0,4.963479519E0,4.015076160E0
2.156360481E0,7.733570576E0,4.999392509E0,3.926490784E0
2.158405147E0,7.731176376E0,5.032911301E0,3.900154591E0
2.160449780E0,7.712022781E0,5.064035892E0,3.840299606E0
2.162494413E0,7.656956196E0,5.085583687E0,3.797203779E0
2.164539013E0,7.542034626E0,5.076006889E0,3.758896589E0
2.166583646E0,7.472602844E0,5.054459095E0,3.730166197E0
2.168599846E0,7.305008888E0,5.037699699E0,3.675099611E0
2.170615979E0,7.111078262E0,5.013757706E0,3.605667830E0
2.172632079E0,6.993762493E0,4.994604111E0,3.586514235E0
2.174648145E0,6.735188484E0,4.949114323E0,3.524264812E0
2.176664178E0,6.455067158E0,4.869806290E0,3.507505417E0
2.178680144E0,6.316203594E0,4.831499100E0,3.502717018E0
2.180696110E0,6.062417984E0,4.747702122E0,3.493140221E0
2.182712076E0,5.782296181E0,4.687847137E0,3.442862034E0
2.184728076E0,5.653009415E0,4.649539471E0,3.423708439E0
2.186744076E0,5.303455830E0,4.572925091E0,3.406949043E0
2.188760609E0,5.183745861E0,4.541800499E0,3.402160645E0
2.190775242E0,4.980238914E0,4.503493309E0,3.402160645E0
2.192789842E0,4.896441936E0,4.462791920E0,3.404554844E0
2.194804475E0,4.778826714E0,4.438849926E0,3.392583847E0
2.196819075E0,4.695029736E0,4.426878929E0,3.359065056E0
2.198833575E0,4.659116745E0,4.417302132E0,3.354276657E0
2.200848008E0,4.594472885E0,4.422090530E0,3.347094059E0
2.202862408E0,4.601655483E0,4.426878929E0,3.339911461E0
2.204876841E0,4.606443882E0,4.436455727E0,3.339911461E0
2.206891207E0,4.589684486E0,4.477157116E0,3.344699860E0
2.208905640E0,4.570530891E0,4.532223701E0,3.351882458E0
2.210920106E0,4.558559895E0,4.556165695E0,3.363853455E0
2.212934639E0,4.537012100E0,4.594472885E0,3.411737442E0
2.214946239E0,4.544194698E0,4.644751072E0,3.469198227E0
2.216957839E0,4.558559895E0,4.651933670E0,3.500322819E0
2.218969439E0,4.592078686E0,4.704606533E0,3.579331636E0
2.220981072E0,4.683058739E0,4.762067318E0,3.694253206E0
2.222992705E0,4.821922302E0,4.836287498E0,3.835511208E0
2.225004371E0,4.903624535E0,4.891354084E0,3.907337189E0
2.227016071E0,5.052064896E0,5.001786709E0,4.062960148E0
2.229027704E0,5.207687855E0,5.099948883E0,4.201824188E0
2.231039370E0,5.291484833E0,5.155015469E0,4.266467571E0
2.233051036E0,5.454290867E0,5.262754440E0,4.340687752E0
2.235068436E0,5.562029839E0,5.360917091E0,4.388571739E0
2.237085936E0,5.660192013E0,5.442319870E0,4.381389141E0
2.239103536E0,5.710470200E0,5.485415459E0,4.355052948E0
2.241121169E0,5.787084579E0,5.576395035E0,4.268861771E0
2.243138869E0,5.854122639E0,5.645826817E0,4.149151325E0
2.245156569E0,5.870882034E0,5.684134007E0,4.084507942E0
2.247174302E0,5.875670433E0,5.760748386E0,3.883395195E0
2.249190235E0,5.851728439E0,5.777507782E0,3.823540211E0
2.251208068E0,5.799055576E0,5.779901981E0,3.756502390E0
2.253225968E0,5.686528206E0,5.767930984E0,3.629609823E0
2.255243901E0,5.526116848E0,5.712864399E0,3.509899616E0
2.257261934E0,5.411195278E0,5.669768810E0,3.447650433E0
2.259280000E0,5.121496677E0,5.557241440E0,3.325546265E0
2.261298133E0,4.790797710E0,5.411195278E0,3.184288263E0
2.263316299E0,4.596867085E0,5.339369297E0,3.119644880E0
2.265334399E0,4.182670593E0,5.188534260E0,2.978386879E0
2.267352565E0,3.744531393E0,5.023334503E0,2.829946518E0
2.269398965E0,3.292027235E0,4.867412090E0,2.643198729E0
2.271445398E0,2.853888512E0,4.683058739E0,2.475604534E0
2.273491831E0,2.427720547E0,4.520252705E0,2.284068346E0
2.275538264E0,2.229001760E0,4.448426723E0,2.183511972E0
2.277584764E0,1.814804912E0,4.302380562E0,1.972822189E0
2.279631264E0,1.395819545E0,4.163516521E0,1.776497602E0
2.281677830E0,1.182735682E0,4.110844135E0,1.675941229E0
2.283724396E0,7.924807668E-1,4.007893562E0,1.484405041E0
2.285771062E0,4.333505034E-1,3.904942989E0,1.323993564E0
2.287817728E0,7.422025502E-2,3.857059002E0,1.189918280E0
2.289864461E0,-9.097966552E-2,3.758896589E0,1.127668977E0
2.291911261E0,-3.950432837E-1,3.655946016E0,1.031900883E0
2.293958127E0,-7.302315235E-1,3.531447411E0,9.648633003E-1
2.295999293E0,-9.097966552E-1,3.478775024E0,9.361328483E-1
2.298040426E0,-1.273715258E0,3.373430252E0,8.547300100E-1
2.300081559E0,-1.637633920E0,3.277662039E0,7.852981687E-1
2.302122725E0,-1.826775908E0,3.229778051E0,7.398083210E-1
2.304163791E0,-2.200271368E0,3.155557871E0,6.631938815E-1
2.306204924E0,-2.552218914E0,3.124433279E0,5.554547906E-1
2.308246024E0,-2.885013103E0,3.134010077E0,3.902548850E-1
2.310287057E0,-3.028665066E0,3.131615877E0,2.944868207E-1
2.312328090E0,-3.306392431E0,3.148375273E0,7.900865376E-2
2.314369056E0,-3.430891037E0,3.160346270E0,-3.830722719E-2
2.316412289E0,-3.639186621E0,3.172317266E0,-2.896983922E-1
2.318453189E0,-3.799597979E0,3.193865061E0,-5.410895944E-1
2.320494122E0,-3.971980572E0,3.224989653E0,-7.852981687E-1
2.322535088E0,-4.050989151E0,3.248931646E0,-9.002198577E-1
2.324576121E0,-4.206612587E0,3.292027235E0,-1.142034173E0
2.326617254E0,-4.350264549E0,3.325546265E0,-1.379060149E0
2.328658420E0,-4.417302132E0,3.342305660E0,-1.496376038E0
2.330671420E0,-4.537012100E0,3.399766445E0,-1.740584612E0
2.332684386E0,-4.618414879E0,3.428496838E0,-1.994369984E0
2.334697419E0,-4.642356873E0,3.442862034E0,-2.116474390E0
2.336710452E0,-4.702212334E0,3.478775024E0,-2.312798738E0
2.338723452E0,-4.766855717E0,3.488351822E0,-2.461239338E0
2.340736452E0,-4.797980309E0,3.495534420E0,-2.509123325E0
2.342749418E0,-4.845864296E0,3.485957623E0,-2.588132143E0
2.344762384E0,-4.891354084E0,3.478775024E0,-2.671929121E0
2.346775284E0,-4.925172329E0,3.478775024E0,-2.722207308E0
2.348788150E0,-4.951508522E0,3.469198227E0,-2.750937700E0
2.350829316E0,-5.001786709E0,3.423708439E0,-2.813186884E0
2.352870482E0,-5.011363506E0,3.404554844E0,-2.832340717E0
2.354911648E0,-5.020940304E0,3.361459255E0,-2.885013103E0
2.356952781E0,-5.004180908E0,3.318363667E0,-2.925714493E0
2.358993881E0,-4.985027313E0,3.301604033E0,-2.959233284E0
2.361034947E0,-4.963479519E0,3.234566450E0,-3.011905670E0
2.363076047E0,-4.961085320E0,3.134010077E0,-3.074155092E0
2.365117180E0,-4.970662117E0,3.088520288E0,-3.086126089E0
2.367158280E0,-5.032911301E0,2.964021683E0,-3.093308687E0
2.369199446E0,-5.176563263E0,2.741360903E0,-3.090914488E0
2.371242946E0,-5.222053051E0,2.640804529E0,-3.074155092E0
2.373286546E0,-5.296273232E0,2.540247917E0,-3.062183857E0
2.375330179E0,-5.497386456E0,2.312798738E0,-3.007117271E0
2.377371512E0,-5.748777390E0,2.001552582E0,-2.947262287E0
2.379415145E0,-5.904400826E0,1.843535304E0,-2.911349297E0
2.381458778E0,-6.237194538E0,1.510741234E0,-2.815581083E0
2.383502344E0,-6.613084316E0,1.177947283E0,-2.686294317E0
2.385545877E0,-6.814197540E0,1.015141487E0,-2.612074137E0
2.387589377E0,-7.242759228E0,6.967126727E-1,-2.439691544E0
2.389632843E0,-7.702445984E0,4.118026793E-1,-2.279279947E0
2.391676176E0,-8.166921616E0,2.944868207E-1,-2.188300371E0
2.393719476E0,-8.389581680E0,9.097966552E-2,-1.958456993E0
2.395762642E0,-8.830115318E0,-9.097966552E-2,-1.728613615E0
2.397808742E0,-9.246706009E0,-2.011129409E-1,-1.479616642E0
2.399854908E0,-9.440636635E0,-2.466027737E-1,-1.355118155E0
2.401901074E0,-9.797372818E0,-2.968810201E-1,-1.103726983E0
2.403947207E0,-1.010861874E1,-3.327940404E-1,-8.882488012E-1
2.405993340E0,-1.028578949E1,-3.591302633E-1,-7.781155705E-1
2.408039473E0,-1.058027649E1,-3.639186621E-1,-6.081272364E-1
2.410085706E0,-1.080293751E1,-3.639186621E-1,-4.740519226E-1
2.412103706E0,-1.090588760E1,-3.639186621E-1,-4.237737060E-1
2.414121706E0,-1.105432892E1,-3.591302633E-1,-3.663128614E-1
2.416139672E0,-1.118122101E1,-3.758896589E-1,-3.543418646E-1
2.418157638E0,-1.127220058E1,-3.854664862E-1,-3.902548850E-1
2.420175604E0,-1.131050777E1,-3.830722570E-1,-4.046200812E-1
2.422193604E0,-1.135599804E1,-4.022258818E-1,-4.477157295E-1
2.424211604E0,-1.135120964E1,-4.357447028E-1,-4.955997467E-1
2.426229637E0,-1.132966137E1,-4.764461517E-1,-5.243301988E-1
2.428247670E0,-1.130093098E1,-5.339069963E-1,-5.985504389E-1
2.430265703E0,-1.124586487E1,-6.057330370E-1,-6.799532771E-1
2.432283269E0,-1.120755768E1,-6.368576288E-1,-7.230489254E-1
2.434298902E0,-1.110700130E1,-7.134721279E-1,-8.283938169E-1
2.436314568E0,-1.097292614E1,-8.259995580E-1,-9.361328483E-1
2.438330268E0,-1.089631081E1,-8.930372596E-1,-9.983820915E-1
2.440345968E0,-1.070716953E1,-9.888052940E-1,-1.151610970E0
2.442361668E0,-1.049887371E1,-1.120486379E0,-1.290474772E0
2.444377368E0,-1.028100109E1,-1.192312479E0,-1.436521053E0
2.446393034E0,-1.017805099E1,-1.316810966E0,-1.501164436E0
2.448408700E0,-9.957783699E0,-1.465251446E0,-1.592144132E0
2.450424366E0,-9.768642426E0,-1.649604917E0,-1.671152830E0
2.452440132E0,-9.692028046E0,-1.735796213E0,-1.699883223E0
2.454455932E0,-9.536404610E0,-1.915361404E0,-1.771709204E0
2.456471765E0,-9.404723167E0,-2.104503393E0,-1.841141105E0
2.458484698E0,-9.347262383E0,-2.202665567E0,-1.879448295E0
2.460497531E0,-9.208398819E0,-2.406172752E0,-1.936909199E0
2.462510331E0,-9.119813919E0,-2.640804529E0,-1.970427990E0
2.464523131E0,-9.086295128E0,-2.760514498E0,-1.987187386E0
2.466535931E0,-9.033622742E0,-2.995146275E0,-1.999158382E0
2.468548664E0,-9.031228065E0,-3.251325846E0,-1.970427990E0
2.470561364E0,-9.031228065E0,-3.579331636E0,-1.941697598E0
2.472573930E0,-9.052776337E0,-3.751713991E0,-1.939303398E0
2.474586396E0,-9.143755913E0,-4.103661537E0,-1.898601890E0
2.476598862E0,-9.306561470E0,-4.496310711E0,-1.810016513E0
2.478620728E0,-9.553164482E0,-4.704606533E0,-1.759738207E0
2.480642661E0,-9.708786964E0,-5.104737282E0,-1.668758631E0
2.482664594E0,-1.010143661E1,-5.456685066E0,-1.596932530E0
2.484686494E0,-1.060900688E1,-5.767930984E0,-1.458068848E0
2.486708360E0,-1.088434029E1,-5.902006626E0,-1.357512355E0
2.488730260E0,-1.143740082E1,-6.179733753E0,-1.134851575E0
2.490752160E0,-1.199285603E1,-6.507739544E0,-9.002198577E-1
2.492772260E0,-1.226340008E1,-6.708852291E0,-7.948749661E-1
2.494794160E0,-1.274702930E1,-7.180510044E0,-6.200982332E-1
2.496816026E0,-1.315643787E1,-7.712022781E0,-4.955997467E-1
2.498837892E0,-1.335994434E1,-8.004115105E0,-4.692635238E-1
2.500859692E0,-1.373104572E1,-8.581118584E0,-4.548983276E-1
2.502881425E0,-1.409017658E1,-9.122207642E0,-4.405331016E-1
2.504903125E0,-1.423861694E1,-9.392752647E0,-4.094084799E-1
2.506924858E0,-1.449000835E1,-9.885957718E0,-2.753331959E-1
2.508946591E0,-1.464323711E1,-1.032649136E1,-2.154781483E-2
2.510968357E0,-1.473212147E1,-1.075744724E1,3.663128614E-1
2.513018557E0,-1.473212147E1,-1.120516300E1,8.379706144E-1
2.515068757E0,-1.468154430E1,-1.170794582E1,1.331176162E0
2.517118990E0,-1.463605404E1,-1.199046135E1,1.587355733E0
2.519169156E0,-1.450916195E1,-1.267759705E1,2.099714994E0
2.521219322E0,-1.426255894E1,-1.351317406E1,2.643198729E0
2.523269522E0,-1.412130070E1,-1.398243713E1,2.894589901E0
2.525319755E0,-1.375259399E1,-1.502900219E1,3.361459255E0
2.527370021E0,-1.330008984E1,-1.624046898E1,3.754108191E0
2.529420321E0,-1.301757431E1,-1.690366173E1,3.916913986E0
2.531470654E0,-1.232804394E1,-1.835933685E1,4.192247391E0
2.533521054E0,-1.140388203E1,-1.991077995E1,4.359841347E0
2.535571454E0,-1.013734913E1,-2.156996155E1,4.304774761E0
2.537621920E0,-9.285013199E0,-2.241750908E1,4.144362926E0
2.539663020E0,-7.079953671E0,-2.411978722E1,3.514688015E0
2.541704053E0,-4.086902142E0,-2.581278610E1,2.715024710E0
2.543745086E0,-2.331952572E0,-2.666033363E1,2.394201756E0
2.545786119E0,1.651999116E0,-2.826205444E1,2.066195965E0
2.547827219E0,6.081571579E0,-2.957407761E1,2.130839586E0
2.549868285E0,8.384793282E0,-3.013192558E1,2.252943754E0
2.551909351E0,1.554615021E1,-3.117579842E1,2.681505919E0
2.553950384E0,1.806724548E1,-3.131466103E1,2.856282711E0
2.555991484E0,2.066016579E1,-3.136015129E1,3.069366693E0
2.558032584E0,2.615515709E1,-3.105848312E1,3.672705412E0
2.560073650E0,3.189884758E1,-3.002418709E1,4.515464306E0
2.562114816E0,3.814322281E1,-2.792447281E1,5.545270443E0
2.564156016E0,4.138257980E1,-2.631556892E1,6.103119373E0
2.566197282E0,4.783285904E1,-2.201767731E1,7.149385452E0
2.568238515E0,5.409878159E1,-1.628116989E1,7.800608635E0
2.570279748E0,5.706759262E1,-1.291701698E1,7.987356186E0
2.572320948E0,6.260059357E1,-5.557241440E0,8.262689590E0
2.574333748E0,6.750661469E1,2.027888775E0,8.514080048E0
2.576346514E0,6.967096710E1,5.653009415E0,8.609848976E0
2.578359314E0,7.327185059E1,1.220593929E1,8.617031097E0
2.580372114E0,7.575254059E1,1.757882690E1,8.403946877E0
2.582385014E0,7.650910950E1,1.971924400E1,8.269871712E0
2.584397914E0,7.694006348E1,2.278621674E1,7.999327183E0
2.586410847E0,7.591534424E1,2.427780342E1,7.728782177E0
2.588423747E0,7.348522949E1,2.447412872E1,7.503727436E0
2.590436747E0,7.175631714E1,2.396416283E1,7.415142059E0
2.592449680E0,6.731268311E1,2.247257614E1,7.314585686E0
2.595384680E0,6.177459335E1,2.025793839E1,7.261912823E0
2.597368374E0,5.546108246E1,1.754291534E1,7.008127689E0
2.599380374E0,4.878335571E1,1.461211205E1,6.189310551E0
2.601394374E0,4.543147278E1,1.312770748E1,5.633855820E0
2.603406874E0,3.887824249E1,1.025227070E1,4.225766182E0
2.605419540E0,3.273921204E1,7.599495411E0,2.456450939E0
2.607432040E0,2.722057724E1,6.385635376E0,6.009446383E-1
2.609444640E0,2.475215530E1,4.180276394E0,-2.681505978E-1
2.611457140E0,2.052609062E1,2.387019157E0,-1.704671621E0
2.613469854E0,1.738250351E1,1.101332784E0,-2.578555346E0
2.615487229E0,1.623567963E1,6.416460276E-1,-2.753331900E0
2.617504117E0,1.483267784E1,4.070143029E-2,-2.516305923E0
2.619520517E0,1.452352715E1,-1.963245422E-1,-1.414973259E0
2.621536517E0,1.470788002E1,-2.178723514E-1,-5.554547906E-1
2.623552100E0,1.572332096E1,-5.027823523E-2,1.673547029E0
2.625567484E0,1.730828285E1,4.046200812E-1,4.414907932E0
2.627582626E0,1.824202156E1,7.374141216E-1,5.921160221E0
2.629597692E0,2.025075722E1,1.570596337E0,9.002497673E0
2.631612629E0,2.227864456E1,2.545036316E0,1.193300056E1
2.633627393E0,2.423710251E1,3.584120035E0,1.452831554E1
2.635641893E0,2.515677452E1,4.098873138E0,1.566586018E1
2.637656261E0,2.686384010E1,5.097554684E0,1.757164574E1
2.639670511E0,2.833627510E1,5.964255810E0,1.893634033E1
2.641688034E0,2.896834373E1,6.306626320E0,1.941039085E1
2.643705397E0,2.996193695E1,6.826168537E0,1.994908714E1
2.645722527E0,3.055330658E1,7.156568050E0,1.997781754E1
2.647739443E0,3.068498611E1,7.259518623E0,1.982219505E1
2.649756203E0,3.060358429E1,7.379229069E0,1.924279785E1
2.651772818E0,3.009122467E1,7.381623268E0,1.839764404E1
2.653789299E0,2.919818687E1,7.355287075E0,1.743278122E1
2.655805691E0,2.865230942E1,7.252336025E0,1.692281532E1
2.657822001E0,2.735704613E1,7.020098686E0,1.587654972E1
2.659838201E0,2.591334343E1,6.653785706E0,1.491886902E1
2.661854367E0,2.515438080E1,6.450278759E0,1.444212437E1
2.663870567E0,2.360982132E1,5.966650009E0,1.351796246E1
2.665886800E0,2.204401398E1,5.487809658E0,1.266562653E1
2.667903066E0,2.131378174E1,5.272331238E0,1.227297688E1
2.669919332E0,1.992993355E1,4.886565685E0,1.157626438E1
2.671935665E0,1.870170784E1,4.589684486E0,1.099447346E1
2.673951931E0,1.762671089E1,4.417302132E0,1.052521038E1
2.675966897E0,1.715744781E1,4.355052948E0,1.034803867E1
2.677981897E0,1.636975479E1,4.302380562E0,1.004876423E1
2.679996897E0,1.602259636E1,4.292803764E0,9.914688110E0
2.682011897E0,1.543362236E1,4.302380562E0,9.680056572E0
2.684026930E0,1.497632980E1,4.364629745E0,9.502885818E0
2.686041996E0,1.463605404E1,4.393360138E0,9.308955193E0
2.688057062E0,1.449240208E1,4.402936935E0,9.196428299E0
2.690072128E0,1.430565453E1,4.441244125E0,8.992920876E0
2.692087161E0,1.420030975E1,4.491522312E0,8.748712540E0
2.694102194E0,1.414524269E1,4.522646904E0,8.619425774E0
2.696117294E0,1.403989792E1,4.592078686E0,8.305785179E0
2.698132394E0,1.392737103E1,4.632780075E0,7.934683800E0
2.700147494E0,1.387709236E1,4.659116745E0,7.719205379E0
2.702160260E0,1.373104572E1,4.692635536E0,7.281066418E0
2.704172926E0,1.351077938E1,4.673481941E0,6.785466671E0
2.706185592E0,1.337909794E1,4.639962673E0,6.553229332E0
2.708198258E0,1.311334229E1,4.563348293E0,6.091148376E0
2.710210858E0,1.277575970E1,4.438849926E0,5.667374611E0
2.712223424E0,1.236635113E1,4.357447147E0,5.298667431E0
2.714235957E0,1.215087318E1,4.216189384E0,5.143044472E0
2.716248357E0,1.172231102E1,4.079719543E0,4.886565685E0
2.718260657E0,1.127459526E1,3.904942989E0,4.675876141E0
2.720272890E0,1.104954052E1,3.806780815E0,4.587290287E0
2.722294323E0,1.060421848E1,3.605667830E0,4.467580318E0
2.724315789E0,1.021156979E1,3.397372246E0,4.383783340E0
2.726337222E0,9.847650528E0,3.196259260E0,4.345476151E0
2.728358588E0,9.680056572E0,3.114856482E0,4.350264549E0
2.730379988E0,9.373599052E0,2.932897091E0,4.400542736E0
2.732401321E0,9.103054047E0,2.798821688E0,4.505887508E0
2.734422721E0,8.897152901E0,2.700659513E0,4.651933670E0
2.736445387E0,8.782231331E0,2.671929121E0,4.738125324E0
2.738468053E0,8.650549889E0,2.614468336E0,4.922778130E0
2.740490719E0,8.607454300E0,2.590526342E0,5.013757706E0
2.742513385E0,8.605060577E0,2.547430515E0,5.212476254E0
2.744536051E0,8.679280281E0,2.516305923E0,5.404012680E0
2.746558684E0,8.832509041E0,2.511517525E0,5.588366032E0
2.748581317E0,8.947430611E0,2.516305923E0,5.674557209E0
2.750603883E0,9.253889084E0,2.578555346E0,5.870882034E0
2.752626449E0,9.663297653E0,2.717418909E0,6.074388981E0
2.754649015E0,9.883563995E0,2.817975283E0,6.165368557E0
2.757583015E0,1.054436398E1,3.193865061E0,6.361693382E0
2.759707374E0,1.073829365E1,3.315969467E0,6.380846977E0
2.761720374E0,1.108545303E1,3.509899616E0,6.328174591E0
2.763731374E0,1.132726765E1,3.660734415E0,6.186916351E0
2.765742874E0,1.151162148E1,3.730166197E0,5.959467411E0
2.767755207E0,1.157387066E1,3.749319792E0,5.822998047E0
2.769767457E0,1.163133144E1,3.775655985E0,5.511751652E0
2.771779857E0,1.168160915E1,3.756502390E0,5.171774864E0
2.773792357E0,1.169597435E1,3.725377798E0,5.011363506E0
2.775804642E0,1.167921543E1,3.667917013E0,4.711789131E0
2.777816892E0,1.164569664E1,3.615244627E0,4.453215122E0
2.779829225E0,1.161696625E1,3.591302633E0,4.335899353E0
2.781841625E0,1.152838039E1,3.524264812E0,4.113238335E0
2.783853988E0,1.139430523E1,3.483563423E0,3.967192173E0
2.785866321E0,1.130571938E1,3.459621429E0,3.909731388E0
2.787878705E0,1.114530849E1,3.402160645E0,3.828328609E0
2.789891062E0,1.097771454E1,3.325546265E0,3.804386616E0
2.791903395E0,1.088673401E1,3.289633036E0,3.806780815E0
2.793915832E0,1.072632313E1,3.215412855E0,3.854664803E0
2.795928243E0,1.049169159E1,3.086126089E0,3.938461781E0
2.797940576E0,1.042465305E1,3.033453465E0,3.983951569E0
2.799952839E0,1.036240387E1,2.971204281E0,4.046200752E0
2.801965039E0,1.022832870E1,2.892195702E0,4.175487995E0
2.803977134E0,1.013974380E1,2.810792685E0,4.352658749E0
2.805989270E0,1.010143661E1,2.762908697E0,4.453215122E0
2.808001443E0,1.002961063E1,2.688688517E0,4.678270340E0
2.810013568E0,9.974543571E0,2.650381327E0,4.920383930E0
2.812025688E0,9.938630104E0,2.638410330E0,5.044882298E0
2.814037764E0,9.900322914E0,2.650381327E0,5.281908035E0
2.816049875E0,9.876380920E0,2.683900118E0,5.473444462E0
2.818061982E0,9.859622002E0,2.695871115E0,5.564424038E0
2.820074085E0,9.838073730E0,2.710236311E0,5.710470200E0
2.822086218E0,9.794978142E0,2.719813108E0,5.839757442E0
2.824098451E0,9.749488831E0,2.719813108E0,5.916371822E0
2.826110717E0,9.737517357E0,2.707842112E0,5.928342819E0
2.828122917E0,9.711181641E0,2.686294317E0,5.947496414E0
2.830135150E0,9.694421768E0,2.643198729E0,5.942708015E0
2.832147350E0,9.677662849E0,2.626439333E0,5.923554420E0
2.834159550E0,9.660902977E0,2.580949545E0,5.913977623E0
2.836171783E0,9.665691376E0,2.604891539E0,5.875670433E0
2.838212383E0,9.684844971E0,2.671929121E0,5.846940041E0
2.840253016E0,9.749488831E0,2.774879694E0,5.834969044E0
2.842293616E0,9.787796021E0,2.829946518E0,5.839757442E0
2.844334216E0,9.895534515E0,2.959233284E0,5.849334240E0
2.846374849E0,1.003439903E1,3.093308687E0,5.861305237E0
2.848415515E0,1.015410900E1,3.157952070E0,5.880458832E0
2.850456215E0,1.020678139E1,3.284844637E0,5.885247231E0
2.852496981E0,1.033127975E1,3.416525841E0,5.906795025E0
2.854537681E0,1.045577812E1,3.495534420E0,5.902006626E0
2.856578381E0,1.059703636E1,3.550601006E0,5.875670433E0
2.858620381E0,1.067604446E1,3.579331636E0,5.858911037E0
2.860662447E0,1.083885002E1,3.612850428E0,5.832574844E0
2.862704513E0,1.094180107E1,3.636792421E0,5.820603371E0
2.864746713E0,1.118361568E1,3.725377798E0,5.796661377E0
2.866788879E0,1.141824722E1,3.837905407E0,5.787084579E0
2.868830979E0,1.151880360E1,3.902548790E0,5.789478779E0
2.870873112E0,1.169358063E1,4.048594952E0,5.806238174E0
2.872915212E0,1.179653072E1,4.201824188E0,5.796661377E0
2.874957345E0,1.185877991E1,4.271255970E0,5.808632374E0
2.876999445E0,1.186596298E1,4.390965939E0,5.811026573E0
2.879041478E0,1.185159779E1,4.474762917E0,5.772719383E0
2.881083444E0,1.176780033E1,4.515464306E0,5.779901981E0
2.883125344E0,1.171033955E1,4.525041103E0,5.794267178E0
2.885167210E0,1.158823586E1,4.508281708E0,5.808632374E0
2.887209043E0,1.137754536E1,4.441244125E0,5.811026573E0
2.889250876E0,1.126980686E1,4.390965939E0,5.808632374E0
2.891292676E0,1.106629944E1,4.314351559E0,5.763142586E0
2.893334509E0,1.084124470E1,4.230554581E0,5.741594791E0
2.895376275E0,1.073589993E1,4.175487995E0,5.748777390E0
2.897418075E0,1.054675770E1,4.067748547E0,5.748777390E0
2.899431508E0,1.038395214E1,3.988739967E0,5.746383190E0
2.901444874E0,1.020199299E1,3.960009575E0,5.751171589E0
2.903458207E0,1.011819553E1,3.909731388E0,5.741594791E0
2.905471507E0,9.921871185E0,3.881000996E0,5.727229595E0
2.907484807E0,9.732728958E0,3.845088005E0,5.712864399E0
2.909498040E0,9.636960983E0,3.833117008E0,5.691316605E0
2.911511240E0,9.469367027E0,3.816357613E0,5.638644218E0
2.913524373E0,9.325715065E0,3.799597979E0,5.574000835E0
2.915537539E0,9.251494408E0,3.780444384E0,5.542876244E0
2.917550772E0,9.064746857E0,3.744531393E0,5.451896667E0
2.919562705E0,9.016862869E0,3.734954596E0,5.447108269E0
2.921574638E0,8.968978882E0,3.720589399E0,5.444714069E0
2.923586638E0,8.868422508E0,3.713406801E0,5.442319870E0
2.925598604E0,8.765471458E0,3.701435804E0,5.451896667E0
2.927610604E0,8.686463356E0,3.718195200E0,5.456685066E0
2.929622670E0,8.650549889E0,3.739742994E0,5.447108269E0
2.931634770E0,8.576330185E0,3.754108191E0,5.437531471E0
2.933646903E0,8.516474724E0,3.785232782E0,5.413589478E0
2.935659069E0,8.487744331E0,3.797203779E0,5.404012680E0
2.937671235E0,8.425495148E0,3.816357613E0,5.351340294E0
2.939683501E0,8.384793282E0,3.845088005E0,5.286696434E0
2.941695801E0,8.363245964E0,3.866635799E0,5.248389244E0
2.943708134E0,8.358457565E0,3.909731388E0,5.169380665E0
2.945720467E0,8.396764755E0,3.983951569E0,5.064035892E0
2.947732800E0,8.435071945E0,4.022258759E0,5.018546104E0
2.949745133E0,8.514080048E0,4.125209332E0,4.915595531E0
2.951757466E0,8.609848976E0,4.254496574E0,4.836287498E0
2.953769732E0,8.650549889E0,4.328716755E0,4.793191910E0
2.955782032E0,8.748712540E0,4.462791920E0,4.716577530E0
2.957794298E0,8.815750122E0,4.580107689E0,4.651933670E0
2.959806531E0,8.858845711E0,4.647145271E0,4.606443882E0
2.961818731E0,8.877999306E0,4.723760128E0,4.570530891E0
2.963830931E0,8.887576103E0,4.848258495E0,4.489128113E0
2.965852664E0,8.901941299E0,4.934749126E0,4.398148537E0
2.967874397E0,8.913911819E0,5.001786709E0,4.292803764E0
2.969896130E0,8.909123421E0,5.040093899E0,4.242525578E0
2.971917863E0,8.897152901E0,5.080795288E0,4.161122322E0
2.973939596E0,8.798990250E0,5.092766285E0,4.070142746E0
2.975961296E0,8.765471458E0,5.099948883E0,4.017470360E0
2.977982896E0,8.633790970E0,5.087977886E0,3.866635799E0
2.980004496E0,8.590695381E0,5.059247494E0,3.821146011E0
2.982026096E0,8.554781914E0,5.040093899E0,3.792415380E0
2.984047662E0,8.497321129E0,5.018546104E0,3.758896589E0
2.986069195E0,8.480561256E0,5.004180908E0,3.734954596E0
2.988090728E0,8.473379135E0,4.994604111E0,3.734954596E0
2.990112261E0,8.470984459E0,4.994604111E0,3.730166197E0
2.992133761E0,8.492532730E0,5.035305500E0,3.730166197E0
2.994155261E0,8.514080048E0,5.052064896E0,3.722983599E0
2.996176727E0,8.526051521E0,5.104737282E0,3.751713991E0
2.998198227E0,8.432677269E0,5.150227070E0,3.816357613E0
3.000248160E0,8.293813705E0,5.186140060E0,3.861847401E0
3.002298160E0,8.121431351E0,5.195716858E0,3.878606796E0
3.004348193E0,7.901165009E0,5.166986465E0,3.869029999E0
3.006398226E0,7.786243439E0,5.140650272E0,3.861847401E0
3.008448292E0,7.525275230E0,5.061641693E0,3.821146011E0
3.010498358E0,7.266701221E0,4.961085320E0,3.806780815E0
3.012548391E0,7.127837658E0,4.913201332E0,3.797203779E0
3.014598457E0,6.840533733E0,4.814739704E0,3.761290789E0
3.016648557E0,6.550835133E0,4.718971729E0,3.761290789E0
3.018698690E0,6.270713329E0,4.692635536E0,3.770867586E0
3.020748856E0,6.148609161E0,4.625597477E0,3.782838583E0
3.022799156E0,5.899612427E0,4.589684486E0,3.809175014E0
3.024849522E0,5.676951408E0,4.546588898E0,3.818751812E0
3.026890388E0,5.552453041E0,4.541800499E0,3.821146011E0
3.028931254E0,5.346551895E0,4.534617901E0,3.835511208E0
3.030972120E0,5.176563263E0,4.517858505E0,3.821146011E0
3.033013053E0,5.073612690E0,4.503493309E0,3.811569214E0
3.035054019E0,4.913201332E0,4.527435303E0,3.782838583E0
3.037095019E0,4.740519524E0,4.546588898E0,3.727771997E0
3.039136085E0,4.577713490E0,4.537012100E0,3.658340216E0
3.041177151E0,4.532223701E0,4.541800499E0,3.620033026E0
3.043218151E0,4.465186119E0,4.527435303E0,3.526659012E0
3.045259084E0,4.448426723E0,4.515464306E0,3.464409828E0
3.047301217E0,4.469974518E0,4.517858505E0,3.342305660E0
3.049342150E0,4.563348293E0,4.541800499E0,3.246537447E0
3.051383050E0,4.742913723E0,4.599261284E0,3.153163671E0
3.053423950E0,4.838681698E0,4.654327869E0,3.098097086E0
3.055464850E0,5.080795288E0,4.790797710E0,3.026270866E0
3.057505816E0,5.358522892E0,4.946720123E0,2.995146275E0
3.059546716E0,5.487809658E0,5.040093899E0,2.978386879E0
3.061559149E0,5.748777390E0,5.217264652E0,2.949656487E0
3.063571582E0,6.036081791E0,5.408801079E0,2.892195702E0
3.065584015E0,6.162974358E0,5.528511047E0,2.863465309E0
3.067596415E0,6.419154167E0,5.765536785E0,2.810792685E0
3.069608781E0,6.658574104E0,5.981015205E0,2.755726099E0
3.071621147E0,6.756736279E0,6.079177380E0,2.715024710E0
3.073633580E0,6.945878506E0,6.246771336E0,2.631227732E0
3.075646046E0,7.115866661E0,6.371270180E0,2.530671120E0
3.077658512E0,7.261912823E0,6.397606373E0,2.403778553E0
3.079670945E0,7.302614689E0,6.411971569E0,2.346317768E0
3.082634945E0,7.384017467E0,6.390423775E0,2.202665567E0
3.084650374E0,7.372046471E0,6.371270180E0,2.157175779E0
3.086663374E0,7.312191486E0,6.292261124E0,2.090138197E0
3.088675374E0,7.168539047E0,6.189310551E0,2.059013367E0
3.090687874E0,6.979397297E0,6.131849766E0,2.047042370E0
3.092700540E0,6.886023521E0,6.007351398E0,1.984793186E0
3.094713290E0,6.656179905E0,5.882853031E0,1.920149803E0
3.096726090E0,6.376058578E0,5.755959988E0,1.845929503E0
3.098738756E0,6.227617741E0,5.696105003E0,1.812410712E0
3.100751613E0,5.727229595E0,5.483021259E0,1.759738207E0
3.102764363E0,5.535693645E0,5.411195278E0,1.752555609E0
3.104777140E0,5.363311291E0,5.325003624E0,1.750161409E0
3.106789940E0,5.008969307E0,5.169380665E0,1.793257117E0
3.108802758E0,4.642356873E0,5.028122902E0,1.845929503E0
3.110815508E0,4.460397720E0,4.956296921E0,1.867477298E0
3.112828354E0,4.106055737E0,4.817133904E0,1.917755604E0
3.114841282E0,3.758896589E0,4.668693542E0,1.970427990E0
3.116854282E0,3.581725836E0,4.596867085E0,1.999158382E0
3.118867282E0,3.203441858E0,4.477157116E0,2.051830769E0
3.120880282E0,2.803610086E0,4.323928356E0,2.078166962E0
3.122893170E0,2.408566952E0,4.252102375E0,2.056619167E0
3.124906012E0,2.219424963E0,4.141968727E0,2.032677174E0
3.126918812E0,1.833958507E0,4.015076160E0,1.929726601E0
3.128939621E0,1.498770237E0,3.916913986E0,1.793257117E0
3.130960121E0,1.328781962E0,3.876212597E0,1.716642618E0
3.132980381E0,9.959878922E-1,3.787626982E0,1.546654344E0
3.135000339E0,7.134721279E-1,3.756502390E0,1.386242747E0
3.137020059E0,4.788403511E-1,3.742137194E0,1.312022567E0
3.139039559E0,3.591302633E-1,3.751713991E0,1.158793569E0
3.141058818E0,1.292868853E-1,3.778050184E0,1.029506683E0
3.143077925E0,-6.224924326E-2,3.840299606E0,9.169792533E-1
3.145096856E0,-1.556231081E-1,3.876212597E0,8.667010069E-1
3.147115556E0,-3.088520169E-1,3.897760391E0,7.493851185E-1
3.149134322E0,-5.027823448E-1,3.933673382E0,6.272808313E-1
3.151153122E0,-5.937620401E-1,3.940855980E0,5.865794420E-1
3.153171955E0,-7.948749661E-1,3.943250179E0,4.668693244E-1
3.155190788E0,-9.888052940E-1,3.926490784E0,3.447650373E-1
3.157209654E0,-1.070208192E0,3.924096584E0,2.705447972E-1
3.159228620E0,-1.209071875E0,3.885789394E0,1.125274822E-1
3.161247586E0,-1.331176162E0,3.864241600E0,-2.394201607E-2
3.163266552E0,-1.369483352E0,3.861847401E0,-9.576806426E-2
3.165285585E0,-1.412579060E0,3.861847401E0,-1.987187415E-1
3.167304585E0,-1.474828243E0,3.842693806E0,-2.394201756E-1
3.169323618E0,-1.503558636E0,3.828328609E0,-2.274491638E-1
3.171342718E0,-1.522712231E0,3.830722809E0,-2.154781520E-1
3.173361818E0,-1.587355733E0,3.813963413E0,-1.963245422E-1
3.175380918E0,-1.659181833E0,3.806780815E0,-1.675941199E-1
3.177400018E0,-1.702277422E0,3.799597979E0,-1.436520964E-1
3.179419151E0,-1.838746905E0,3.770867586E0,-1.053448766E-1
3.181438351E0,-1.982398987E0,3.768473387E0,-3.112462163E-2
3.183457584E0,-2.075772762E0,3.749319792E0,1.436521020E-2
3.185476850E0,-2.264914751E0,3.722983599E0,1.173158810E-1
3.187496150E0,-2.511517525E0,3.677493811E0,2.035071403E-1
3.189509883E0,-2.657563925E0,3.651157618E0,2.418143749E-1
3.191523616E0,-2.940079689E0,3.552995205E0,2.944868207E-1
3.193537349E0,-3.256114244E0,3.421314240E0,3.208230138E-1
3.195551082E0,-3.576937437E0,3.241749048E0,3.327940404E-1
3.197564815E0,-3.751713991E0,3.134010077E0,3.160346150E-1
3.199578481E0,-4.108449936E0,2.896984100E0,2.250549644E-1
3.201592147E0,-4.481945515E0,2.612074137E0,7.900865376E-2
3.203605647E0,-4.680664539E0,2.466027737E0,-1.915361360E-2
3.205619080E0,-5.071218491E0,2.209848166E0,-2.298433632E-1
3.207632513E0,-5.468656063E0,1.968033791E0,-4.453215301E-1
3.209655113E0,-5.846940041E0,1.745373011E0,-6.679822803E-1
3.211677679E0,-6.043264389E0,1.656787634E0,-7.876923680E-1
3.213700179E0,-6.407183170E0,1.515529633E0,-1.029506683E0
3.215722679E0,-6.732794285E0,1.412579060E0,-1.254561663E0
3.217745145E0,-6.905177116E0,1.374271750E0,-1.369483352E0
3.219767545E0,-7.218817234E0,1.314416766E0,-1.608903527E0
3.221789878E0,-7.618649006E0,1.273715258E0,-1.958456993E0
3.223813544E0,-7.618649006E0,1.247379065E0,-1.958456993E0
3.225837177E0,-7.865252018E0,1.240196466E0,-2.197877169E0
3.227860910E0,-8.071153641E0,1.264138460E0,-2.420537949E0
3.229884643E0,-8.241141319E0,1.278503656E0,-2.645592928E0
3.231908343E0,-8.303390503E0,1.283292055E0,-2.743755102E0
3.233932009E0,-8.408735275E0,1.309628367E0,-2.930502892E0
3.235955642E0,-8.502109528E0,1.319205165E0,-3.119644880E0
3.237979275E0,-8.533234596E0,1.328781962E0,-3.198653460E0
3.240002875E0,-8.619425774E0,1.331176162E0,-3.349488258E0
3.242026408E0,-8.686463356E0,1.300051570E0,-3.478775024E0
3.244078341E0,-8.782231331E0,1.259350061E0,-3.572149038E0
3.246130341E0,-8.863634109E0,1.218648672E0,-3.615244627E0
3.248182307E0,-8.957007408E0,1.192312479E0,-3.624821424E0
3.250234240E0,-9.016862869E0,1.108515382E0,-3.632004023E0
3.252286073E0,-9.134179115E0,9.959878922E-1,-3.629609823E0
3.254337806E0,-9.229947090E0,8.595184088E-1,-3.593696833E0
3.256389539E0,-9.265859604E0,7.685387731E-1,-3.576937437E0
3.258441205E0,-9.366415977E0,6.057330370E-1,-3.555389643E0
3.260492838E0,-9.481337547E0,4.237737060E-1,-3.524264812E0
3.262544438E0,-9.526827812E0,3.327940404E-1,-3.512293816E0
3.264596104E0,-9.656114578E0,1.604115069E-1,-3.505111217E0
3.266647770E0,-9.732728958E0,-1.915361360E-2,-3.466804028E0
3.268699436E0,-9.759065628E0,-1.053448766E-1,-3.445256233E0
3.270741902E0,-9.835680008E0,-2.968810201E-1,-3.366247654E0
3.272784335E0,-9.890746117E0,-4.620809257E-1,-3.234566450E0
3.274826801E0,-9.917082787E0,-5.650315881E-1,-3.160346270E0
3.276869234E0,-9.938630104E0,-7.709329724E-1,-2.990357876E0
3.278911634E0,-9.974543571E0,-9.552865028E-1,-2.767697096E0
3.280954000E0,-1.000806236E1,-1.185129881E0,-2.516305923E0
3.282996400E0,-1.003439903E1,-1.414973259E0,-2.229001760E0
3.285037400E0,-1.004636955E1,-1.517923832E0,-2.078166962E0
3.287078333E0,-1.008707142E1,-1.728613615E0,-1.750161409E0
3.289119099E0,-1.011819553E1,-1.841141105E0,-1.561019540E0
3.291159765E0,-1.017326260E1,-2.080561161E0,-1.139639974E0
3.293200431E0,-1.025705910E1,-2.358288765E0,-6.943184733E-1
3.295241164E0,-1.030015469E1,-2.494758129E0,-4.812345505E-1
3.297281897E0,-1.045817184E1,-2.791639090E0,-4.309562966E-2
3.299322630E0,-1.066407394E1,-3.083731890E0,3.519476354E-1
3.301363363E0,-1.074547672E1,-3.236960649E0,5.506663918E-1
3.303404063E0,-1.092982960E1,-3.545812607E0,9.145850539E-1
3.305416363E0,-1.110460663E1,-3.861847401E0,1.261744261E0
3.307428596E0,-1.129853725E1,-4.015076160E0,1.601720929E0
3.309440896E0,-1.140388203E1,-4.316745758E0,1.771709204E0
3.311453162E0,-1.160020638E1,-4.599261284E0,2.109291792E0
3.313465528E0,-1.181089592E1,-4.913201332E0,2.442085743E0
3.315477894E0,-1.192581749E1,-5.056853294E0,2.595314741E0
3.317490294E0,-1.221791077E1,-5.317821026E0,2.901772499E0
3.319502694E0,-1.253873348E1,-5.518934250E0,3.181894064E0
3.321515194E0,-1.272787571E1,-5.609913826E0,3.311181068E0
3.323527727E0,-1.312770748E1,-5.789478779E0,3.552995205E0
3.326463727E0,-1.360894203E1,-5.940313816E0,3.804386616E0
3.328466374E0,-1.374062252E1,-6.148609161E0,3.869029999E0
3.330478374E0,-1.393215942E1,-6.423942566E0,3.962403774E0
3.332492374E0,-1.406862831E1,-6.711246490E0,3.981557369E0
3.334506374E0,-1.410933018E1,-6.888417721E0,3.976768970E0
3.336519707E0,-1.419073296E1,-7.276278019E0,3.962403774E0
3.338533207E0,-1.429847145E1,-7.776666164E0,3.909731388E0
3.340546407E0,-1.433438492E1,-8.049605370E0,3.869029999E0
3.342559407E0,-1.434635544E1,-8.648156166E0,3.739742994E0
3.344572121E0,-1.420749187E1,-9.289801598E0,3.526659012E0
3.346584746E0,-1.407581139E1,-9.624990463E0,3.392583847E0
3.348597412E0,-1.369513321E1,-1.030494308E1,3.035847664E0
3.350610012E0,-1.314207268E1,-1.099926186E1,2.626439333E0
3.352622648E0,-1.282124901E1,-1.134163284E1,2.410961151E0
3.354635148E0,-1.208383560E1,-1.204792213E1,1.996764183E0
3.356647609E0,-1.124586487E1,-1.283322048E1,1.649604917E0
3.358660037E0,-1.038634586E1,-1.368795013E1,1.367089152E0
3.360672437E0,-9.969755173E0,-1.415242577E1,1.261744261E0
3.362684749E0,-9.150938034E0,-1.514871311E1,1.134851575E0
3.364697043E0,-8.382399559E0,-1.629314041E1,1.074996591E0
3.366709209E0,-8.006509781E0,-1.692521095E1,1.089361787E0
3.368721314E0,-7.115866661E0,-1.830666542E1,1.233013868E0
3.370733364E0,-5.861305237E0,-1.990359688E1,1.556231141E0
3.372749173E0,-5.083189487E0,-2.077508736E1,1.776497602E0
3.374764854E0,-3.157952070E0,-2.249891281E1,2.334346771E0
3.376780332E0,-8.020575643E-1,-2.410542107E1,2.949656487E0
3.378795665E0,1.987187386E0,-2.481919289E1,3.536235809E0
3.380810865E0,3.545812607E0,-2.605938911E1,3.830722809E0
3.382825941E0,6.847716331E0,-2.695003128E1,4.335899353E0
3.384840866E0,1.046296024E1,-2.745042038E1,4.707000732E0
3.386855687E0,1.245014858E1,-2.751745796E1,4.843470097E0
3.388870411E0,1.676719284E1,-2.723254776E1,5.116708279E0
3.390885044E0,2.151968384E1,-2.633711624E1,5.392041683E0
3.392899644E0,2.404556656E1,-2.562843323E1,5.480627060E0
3.394914177E0,2.914551544E1,-2.368643570E1,5.530905247E0
3.396928710E0,3.466205597E1,-2.089479637E1,5.339369297E0
3.398943210E0,3.738904953E1,-1.922364426E1,5.159803867E0
3.400957710E0,4.266587067E1,-1.542644024E1,4.855441093E0
3.402972210E0,4.770835876E1,-1.116206741E1,4.663905144E0
3.404986743E0,5.221185303E1,-6.663362503E0,4.716577530E0
3.407001209E0,5.424961853E1,-4.398148537E0,4.843470097E0
3.409015675E0,5.783134460E1,-2.394201607E-2,5.217264652E0
3.411030108E0,6.074508667E1,3.957615376E0,5.660192013E0
3.413044508E0,6.194458389E1,5.736806393E0,5.882853031E0
3.415058941E0,6.375011063E1,8.782231331E0,6.431125164E0
3.417073441E0,6.474370575E1,1.113094330E1,7.127837658E0
3.419087974E0,6.489453888E1,1.205989361E1,7.530063629E0
3.421102540E0,6.454498291E1,1.347007847E1,8.449437141E0
3.423117173E0,6.334758377E1,1.434156704E1,9.462183952E0
3.425131806E0,6.243299866E1,1.460732365E1,9.993697166E0
3.427146539E0,5.999091339E1,1.485183144E1,1.088673401E1
3.429161305E0,5.689521027E1,1.467914963E1,1.140867043E1
3.431176105E0,5.515702057E1,1.448282528E1,1.142542934E1
3.433188305E0,5.140500641E1,1.388666916E1,1.099926186E1
3.435200471E0,4.752400589E1,1.299123764E1,1.008467674E1
3.437212704E0,4.361157990E1,1.182286739E1,8.526051521E0
3.439225037E0,4.167227936E1,1.114291382E1,7.587524414E0
3.441237370E0,3.782719040E1,9.670479774E0,5.595548630E0
3.443249703E0,3.414221573E1,8.138191223E0,3.596091032E0
3.445262036E0,3.238247681E1,7.367258072E0,2.703053713E0
3.447274302E0,2.911678505E1,5.902006626E0,1.185129881E0
3.449286535E0,2.632275200E1,4.661510944E0,1.244984865E-1
3.451298735E0,2.510889053E1,4.129997730E0,-2.178723514E-1
3.453320101E0,2.313098145E1,3.265691042E0,-5.315127969E-1
3.455341501E0,2.173276711E1,2.753331900E0,-3.758896589E-1
3.457362867E0,2.091873932E1,2.509123325E0,2.154781520E-1
3.459384233E0,2.070804977E1,2.497152328E0,6.488286853E-1
3.461405599E0,2.066734695E1,2.674323320E0,1.762132406E0
3.463426999E0,2.101211357E1,3.019088268E0,3.129221678E0
3.465448432E0,2.163699913E1,3.519476414E0,4.613626480E0
3.467469932E0,2.203922462E1,3.823540211E0,5.375282288E0
3.469491432E0,2.290592575E1,4.503493309E0,6.840533733E0
3.471512965E0,2.381811714E1,4.836287498E0,8.123826027E0
3.473534531E0,2.425386238E1,5.478232861E0,8.672098160E0
3.475556131E0,2.504185295E1,6.031293392E0,9.586683273E0
3.477577697E0,2.571941185E1,6.541258335E0,1.025466537E1
3.479599230E0,2.598995781E1,6.761524677E0,1.051084518E1
3.481620763E0,2.638739395E1,7.106289864E0,1.087476349E1
3.483642263E0,2.652386475E1,7.328950882E0,1.107587624E1
3.485663763E0,2.649034500E1,7.386411667E0,1.111418343E1
3.488599763E0,2.598995781E1,7.331345081E0,1.099686813E1
3.490720374E0,2.536507034E1,7.273883820E0,1.088673401E1
3.492732374E0,2.497002792E1,7.065588474E0,1.059943008E1
3.494744374E0,2.408148003E1,6.816591740E0,1.024508858E1
3.496756374E0,2.311422157E1,6.538864136E0,9.871592522E0
3.498768374E0,2.259946823E1,6.380846977E0,9.665691376E0
3.500780374E0,2.154602051E1,6.062417984E0,9.285013199E0
3.502792774E0,2.053806114E1,5.796661377E0,8.911518097E0
3.504805107E0,2.004964447E1,5.674557209E0,8.729558945E0
3.506817678E0,1.910632896E1,5.406406879E0,8.413523674E0
3.508830178E0,1.816780090E1,5.150227070E0,8.119037628E0
3.510842622E0,1.773923874E1,5.035305500E0,7.970596790E0
3.512854922E0,1.693957520E1,4.800374508E0,7.656956196E0
3.514867285E0,1.625004578E1,4.589684486E0,7.357681274E0
3.516879535E0,1.573289776E1,4.515464306E0,7.206846237E0
3.518891765E0,1.555093861E1,4.424484730E0,6.888417721E0
3.520904050E0,1.530194187E1,4.431667328E0,6.565200329E0
3.522916383E0,1.515350151E1,4.510675907E0,6.189310551E0
3.524928695E0,1.513674164E1,4.589684486E0,5.983409405E0
3.526941047E0,1.513195324E1,4.862623692E0,5.265148640E0
3.528953269E0,1.515350151E1,4.956296921E0,4.996998310E0
3.530965479E0,1.517026043E1,5.047276497E0,4.718971729E0
3.532977679E0,1.518702030E1,5.190928459E0,4.168305397E0
3.534989869E0,1.515350151E1,5.272331238E0,3.643975019E0
3.537002141E0,1.510322285E1,5.289090633E0,3.411737442E0
3.539014445E0,1.492605209E1,5.255571842E0,3.007117271E0
3.541026778E0,1.466239071E1,5.188534260E0,2.674323320E0
3.543039138E0,1.449958515E1,5.145438671E0,2.540247917E0
3.545051522E0,1.415242577E1,5.037699699E0,2.348711967E0
3.547063929E0,1.374062252E1,4.888959885E0,2.224213362E0
3.549076357E0,1.326896477E1,4.805162907E0,2.128445387E0
3.551088805E0,1.302236271E1,4.608838081E0,2.099714994E0
3.553101271E0,1.251957989E1,4.359841347E0,2.078166962E0
3.555113771E0,1.204074001E1,4.067748547E0,2.104503393E0
3.557126271E0,1.179892540E1,3.926490784E0,2.138022184E0
3.559138771E0,1.132247925E1,3.632004023E0,2.238578558E0
3.561151304E0,1.085321522E1,3.342305660E0,2.389413357E0
3.563163770E0,1.064492035E1,3.220201254E0,2.485181332E0
3.565176303E0,1.025227070E1,3.011905670E0,2.695871115E0
3.567188769E0,9.919476509E0,2.815581083E0,2.923320293E0
3.569229569E0,9.632172585E0,2.655169725E0,3.138798475E0
3.571270435E0,9.433453560E0,2.521094322E0,3.354276657E0
3.573311335E0,9.285013199E0,2.466027737E0,3.584120035E0
3.575352201E0,9.220370293E0,2.406172752E0,3.696647406E0
3.577393101E0,9.143755913E0,2.360682964E0,3.928884983E0
3.579434034E0,9.088688850E0,2.351106167E0,4.175487995E0
3.581474967E0,9.086295128E0,2.331952572E0,4.295197964E0
3.583515900E0,9.069535255E0,2.296039343E0,4.532223701E0
3.585556833E0,9.081506729E0,2.250549555E0,4.771644115E0
3.587597733E0,9.100660324E0,2.229001760E0,5.025728703E0
3.589638666E0,9.110237122E0,2.221819162E0,5.138256073E0
3.591679599E0,9.170091629E0,2.217030764E0,5.341763496E0
3.593720499E0,9.201216698E0,2.195482969E0,5.413589478E0
3.595761365E0,9.249100685E0,2.145204782E0,5.526116848E0
3.597802165E0,9.280224800E0,2.118868589E0,5.583577633E0
3.599842931E0,9.316138268E0,2.102109194E0,5.595548630E0
3.601883697E0,9.340080261E0,2.073378563E0,5.569212437E0
3.603924430E0,9.423876762E0,2.090138197E0,5.528511047E0
3.605965163E0,9.538799286E0,2.135627985E0,5.456685066E0
3.608005863E0,9.617807388E0,2.178723574E0,5.425560474E0
3.610046463E0,9.763854027E0,2.291250944E0,5.334580898E0
3.612087029E0,9.909899712E0,2.418143749E0,5.238812447E0
3.614127562E0,9.996091843E0,2.475604534E0,5.190928459E0
3.616171062E0,1.015410900E1,2.595314741E0,5.102343082E0
3.618214662E0,1.031212616E1,2.712630510E0,5.016151905E0
3.620258328E0,1.037437534E1,2.765302896E0,4.977844715E0
3.622301994E0,1.049647999E1,2.863465309E0,4.891354084E0
3.624345727E0,1.064013195E1,2.959233284E0,4.771644115E0
3.626389427E0,1.078857231E1,3.081337690E0,4.666299343E0
3.628433227E0,1.084124470E1,3.143586874E0,4.606443882E0
3.630448727E0,1.094180107E1,3.236960649E0,4.489128113E0
3.632464193E0,1.101841545E1,3.320757866E0,4.390965939E0
3.634479659E0,1.105193424E1,3.356670856E0,4.340687752E0
3.636495159E0,1.109263611E1,3.390189648E0,4.209006786E0
3.638510625E0,1.107348251E1,3.418920040E0,4.072536945E0
3.640526125E0,1.105911732E1,3.411737442E0,4.003105164E0
3.642541625E0,1.105193424E1,3.411737442E0,3.885789394E0
3.644557125E0,1.104714584E1,3.416525841E0,3.811569214E0
3.646572691E0,1.104714584E1,3.430891037E0,3.778050184E0
3.648588291E0,1.104954052E1,3.454833031E0,3.715801001E0
3.650605724E0,1.104954052E1,3.459621429E0,3.713406801E0
3.652621424E0,1.102799225E1,3.493140221E0,3.722983599E0
3.654637190E0,1.099926186E1,3.497928619E0,3.722983599E0
3.656653023E0,1.090588760E1,3.493140221E0,3.711012602E0
3.658668889E0,1.080772591E1,3.488351822E0,3.718195200E0
3.660684822E0,1.075026512E1,3.471592426E0,3.715801001E0
3.662700755E0,1.057309437E1,3.459621429E0,3.703830004E0
3.664716721E0,1.040789413E1,3.433285236E0,3.684676409E0
3.666732654E0,1.034085655E1,3.418920040E0,3.675099611E0
3.668748620E0,1.018762779E1,3.380612850E0,3.694253206E0
3.670764686E0,1.006073475E1,3.323152065E0,3.708618402E0
3.672780786E0,9.993697166E0,3.299209833E0,3.730166197E0
3.674796919E0,9.881169319E0,3.258508444E0,3.818751812E0
3.676810085E0,9.785401344E0,3.229778051E0,3.938461781E0
3.678823151E0,9.711181641E0,3.215412855E0,4.086902142E0
3.680836151E0,9.684844971E0,3.215412855E0,4.153939724E0
3.682849151E0,9.634567261E0,3.210624456E0,4.290409565E0
3.684862117E0,9.610625267E0,3.229778051E0,4.424484730E0
3.686875083E0,9.601048470E0,3.246537447E0,4.467580318E0
3.688887983E0,9.627384186E0,3.303998232E0,4.553771496E0
3.690900816E0,9.648932457E0,3.361459255E0,4.611232281E0
3.692913616E0,9.665691376E0,3.392583847E0,4.632780075E0
3.694926382E0,9.725546837E0,3.447650433E0,4.683058739E0
3.696948382E0,9.792584419E0,3.514688015E0,4.704606533E0
3.698970448E0,9.907505989E0,3.598485231E0,4.718971729E0
3.700992481E0,9.967360497E0,3.639186621E0,4.738125324E0
3.703014481E0,1.006552315E1,3.725377798E0,4.757278919E0
3.705036447E0,1.021396351E1,3.804386616E0,4.788403511E0
3.707058347E0,1.027142429E1,3.849876404E0,4.795586109E0
3.709080247E0,1.042704773E1,4.005499363E0,4.833893299E0
3.711101580E0,1.046774864E1,4.060565948E0,4.862623692E0
3.713124680E0,1.056830597E1,4.108449936E0,4.893748283E0
3.715147780E0,1.060900688E1,4.218583584E0,4.903624535E0
3.717170846E0,1.064492035E1,4.321534157E0,4.925172329E0
3.719193879E0,1.066407394E1,4.398148537E0,4.915595531E0
3.721216845E0,1.067365074E1,4.438849926E0,4.910807133E0
3.723239811E0,1.071674633E1,4.503493309E0,4.913201332E0
3.725262777E0,1.071435165E1,4.525041103E0,4.922778130E0
3.727285777E0,1.071435165E1,4.525041103E0,4.932354927E0
3.729308810E0,1.070716953E1,4.548983097E0,4.941931725E0
3.732246810E0,1.068562126E1,4.556165695E0,4.973056316E0
3.734410374E0,1.067365074E1,4.572925091E0,4.980238914E0
3.736424374E0,1.060661316E1,4.570530891E0,4.985027313E0
3.738438374E0,1.049647999E1,4.548983097E0,4.975450516E0
3.740452374E0,1.045817184E1,4.539406300E0,4.970662117E0
3.742466040E0,1.040310574E1,4.503493309E0,4.975450516E0
3.744479540E0,1.035043335E1,4.474762917E0,4.970662117E0
3.746492940E0,1.031930828E1,4.467580318E0,4.965873718E0
3.748506273E0,1.025945377E1,4.458003521E0,4.982633114E0
3.750519558E0,1.024987698E1,4.448426723E0,4.999392509E0
3.752532808E0,1.024269390E1,4.453215122E0,5.004180908E0
3.754546030E0,1.022593498E1,4.479551315E0,5.035305500E0
3.756559130E0,1.020678139E1,4.520252705E0,5.078401089E0
3.758572130E0,1.017565632E1,4.534617901E0,5.107131481E0
3.760585046E0,1.013974380E1,4.556165695E0,5.150227070E0
3.762597969E0,1.004397583E1,4.611232281E0,5.162198067E0
3.764610897E0,9.917082787E0,4.635174274E0,5.147832870E0
3.766623830E0,9.840468407E0,4.630385876E0,5.145438671E0
3.768636705E0,9.653720856E0,4.577713490E0,5.119102478E0
3.770649587E0,9.464578629E0,4.486733913E0,5.133467674E0
3.772662364E0,9.364022255E0,4.417302132E0,5.143044472E0
3.774675153E0,9.136572838E0,4.271255970E0,5.178957462E0
3.776687903E0,8.909123421E0,4.120420933E0,5.241206646E0
3.778702522E0,8.779836655E0,4.053383350E0,5.272331238E0
3.780715294E0,8.514080048E0,3.904942989E0,5.358522892E0
3.782728076E0,8.269871712E0,3.801992416E0,5.430348873E0
3.784740909E0,8.147768021E0,3.754108191E0,5.456685066E0
3.786753829E0,7.905953407E0,3.684676409E0,5.492598057E0
3.788766752E0,7.654561996E0,3.615244627E0,5.509357452E0
3.790779714E0,7.446266651E0,3.586514235E0,5.490203857E0
3.792792714E0,7.355287075E0,3.562572241E0,5.449502468E0
3.794805714E0,7.190086842E0,3.531447411E0,5.358522892E0
3.796818747E0,7.044040680E0,3.562572241E0,5.234024048E0
3.798831780E0,6.986579895E0,3.581725836E0,5.155015469E0
3.800844780E0,6.893206120E0,3.605667830E0,5.008969307E0
3.802857813E0,6.818985939E0,3.658340216E0,4.855441093E0
3.804870846E0,6.790255070E0,3.682282209E0,4.776432514E0
3.806883879E0,6.749553680E0,3.732560396E0,4.620809078E0
3.808896945E0,6.785466671E0,3.823540211E0,4.479551315E0
3.810910045E0,6.833351135E0,3.869029999E0,4.419696331E0
3.812951545E0,6.912359715E0,4.084507942E0,4.237737179E0
3.814993111E0,7.032069683E0,4.228160381E0,4.149151325E0
3.817034677E0,7.084742069E0,4.316745758E0,4.106055737E0
3.819076277E0,7.216423035E0,4.496310711E0,4.000710964E0
3.821117943E0,7.357681274E0,4.671087742E0,3.878606796E0
3.823159676E0,7.424718857E0,4.752490520E0,3.813963413E0
3.825201476E0,7.565976620E0,4.903624535E0,3.706224203E0
3.827243342E0,7.702445984E0,5.016151905E0,3.576937437E0
3.829285275E0,7.764695168E0,5.076006889E0,3.529053211E0
3.831327208E0,7.958625793E0,5.214870453E0,3.406949043E0
3.833369241E0,7.996932983E0,5.277119637E0,3.375824451E0
3.835411307E0,8.028057098E0,5.332186222E0,3.349488258E0
3.837453440E0,8.123826027E0,5.399224281E0,3.282450438E0
3.839494340E0,8.138191223E0,5.471050262E0,3.232172251E0
3.841536540E0,8.154950142E0,5.528511047E0,3.213018656E0
3.843578773E0,8.150161743E0,5.554847240E0,3.215412855E0
3.845621006E0,8.095095634E0,5.597942829E0,3.215412855E0
3.847663206E0,8.004115105E0,5.590760231E0,3.213018656E0
3.849705439E0,7.949048996E0,5.581183434E0,3.220201254E0
3.851747672E0,7.788637638E0,5.535693645E0,3.234566450E0
3.853789838E0,7.640196800E0,5.473444462E0,3.248931646E0
3.855832004E0,7.568370819E0,5.444714069E0,3.251325846E0
3.857874104E0,7.460631847E0,5.389647484E0,3.263296843E0
3.859918704E0,7.362469673E0,5.358522892E0,3.359065056E0
3.861963437E0,7.242759228E0,5.368099689E0,3.493140221E0
3.864008170E0,7.158962250E0,5.372888088E0,3.560178041E0
3.866052936E0,6.969820499E0,5.370493889E0,3.663128614E0
3.868097736E0,6.778284073E0,5.346551895E0,3.734954596E0
3.870142602E0,6.694487095E0,5.325003624E0,3.766079187E0
3.872187502E0,6.464643955E0,5.301061630E0,3.782838583E0
3.874204002E0,6.220435143E0,5.257966042E0,3.785232782E0
3.876220435E0,6.095936775E0,5.222053051E0,3.785232782E0
3.878236901E0,5.822998047E0,5.107131481E0,3.768473387E0
3.880253367E0,5.552453041E0,4.975450516E0,3.744531393E0
3.882269800E0,5.423166275E0,4.915595531E0,3.730166197E0
3.884286233E0,5.193322659E0,4.807557106E0,3.689464808E0
3.886302633E0,4.977844715E0,4.728548527E0,3.665522814E0
3.888318999E0,4.807557106E0,4.675876141E0,3.655946016E0
3.890335365E0,4.738125324E0,4.666299343E0,3.655946016E0
3.892351731E0,4.604049683E0,4.671087742E0,3.629609823E0
3.894369797E0,4.580107689E0,4.699818134E0,3.615244627E0
3.896386097E0,4.558559895E0,4.738125324E0,3.603273630E0
3.898402430E0,4.568136692E0,4.848258495E0,3.576937437E0
3.900418730E0,4.644751072E0,4.970662117E0,3.541024208E0
3.902435063E0,4.687847137E0,5.044882298E0,3.526659012E0
3.904451363E0,4.778826714E0,5.200505257E0,3.505111217E0
3.906467663E0,4.888959885E0,5.353734493E0,3.476380825E0
3.908483896E0,4.946720123E0,5.425560474E0,3.464409828E0
3.910500062E0,5.068824291E0,5.593154430E0,3.426102638E0
3.912516228E0,5.212476254E0,5.734412193E0,3.380612850E0
3.914532394E0,5.372888088E0,5.803843975E0,3.349488258E0
3.916548527E0,5.466261864E0,5.918766022E0,3.335123062E0
3.918564660E0,5.612308025E0,6.033687592E0,3.303998232E0
3.920578293E0,5.729623795E0,6.136638165E0,3.277662039E0
3.922591793E0,5.789478779E0,6.170156956E0,3.258508444E0
3.924605226E0,5.892429829E0,6.256348133E0,3.253720045E0
3.926618626E0,5.978621006E0,6.311414719E0,3.258508444E0
3.928631959E0,6.019322395E0,6.340145588E0,3.258508444E0
3.930645192E0,6.117484570E0,6.373664379E0,3.277662039E0
3.932658358E0,6.246771336E0,6.414365768E0,3.284844637E0
3.934671458E0,6.328174591E0,6.433519363E0,3.301604033E0
3.936684524E0,6.481403351E0,6.490980148E0,3.354276657E0
3.938697557E0,6.629843712E0,6.565200329E0,3.399766445E0
3.940719857E0,6.744765282E0,6.653785706E0,3.416525841E0
3.942742223E0,6.783072472E0,6.704063892E0,3.418920040E0
3.944764523E0,6.847716331E0,6.795043468E0,3.414131641E0
3.946786823E0,6.888417721E0,6.838139534E0,3.378218651E0
3.948809123E0,6.852504730E0,6.859687328E0,3.356670856E0
3.950831423E0,6.845322132E0,6.895600319E0,3.287238836E0
3.952853723E0,6.785466671E0,6.929119110E0,3.174711466E0
3.954874289E0,6.761524677E0,6.924330711E0,3.136404276E0
3.956896589E0,6.728005886E0,6.914753914E0,3.102885485E0
3.958918855E0,6.603507519E0,6.905177116E0,3.043030262E0
3.960941155E0,6.447884560E0,6.857293129E0,3.033453465E0
3.962963421E0,6.347328186E0,6.821380138E0,3.040636063E0
3.964985721E0,6.136638165E0,6.759130478E0,3.078943491E0
3.967007987E0,5.921160221E0,6.682516098E0,3.148375273E0
3.969030320E0,5.784690380E0,6.646603107E0,3.196259260E0
3.971052720E0,5.511751652E0,6.577171326E0,3.270479441E0
3.973075120E0,5.241206646E0,6.486191750E0,3.282450438E0
3.975126053E0,4.975450516E0,6.414365768E0,3.272873640E0
3.977177086E0,4.738125324E0,6.352116585E0,3.213018656E0
3.979228152E0,4.503493309E0,6.316203594E0,3.117250681E0
3.981279152E0,4.398148537E0,6.301837921E0,3.071760893E0
3.983330185E0,4.232948780E0,6.258742332E0,2.952050686E0
3.985381218E0,4.074931145E0,6.203675747E0,2.820369720E0
3.987432284E0,3.981557369E0,6.179733753E0,2.748543501E0
3.989483350E0,3.778050184E0,6.110301971E0,2.616862535E0
3.991534416E0,3.593696833E0,6.048052788E0,2.492363930E0
3.993585449E0,3.500322819E0,6.024110794E0,2.430114746E0
3.995636515E0,3.299209833E0,5.990592003E0,2.276885748E0
3.997687581E0,3.083731890E0,5.990592003E0,2.123656988E0
3.999738714E0,2.911349297E0,5.976226807E0,2.042253971E0
4.001780580E0,2.813186884E0,5.945102215E0,1.886630893E0
4.003822346E0,2.638410330E0,5.942708015E0,1.750161409E0
4.005864112E0,2.482787132E0,5.964255810E0,1.596932530E0
4.007905878E0,2.410961151E0,5.961861610E0,1.522712231E0
4.009947611E0,2.272097349E0,5.973832607E0,1.398213744E0
4.011989344E0,2.130839586E0,5.985803604E0,1.242590666E0
4.014031044E0,2.006340981E0,6.002563000E0,1.101332784E0
4.016072710E0,1.944091797E0,6.021716595E0,1.019929886E0
4.018114310E0,1.848323703E0,6.036081791E0,8.643068075E-1
4.020155810E0,1.819593310E0,6.033687592E0,7.876923680E-1
4.022198643E0,1.771709204E0,6.028899193E0,6.224924326E-1
4.024240043E0,1.723825216E0,6.036081791E0,4.764461517E-1
4.026281376E0,1.707065821E0,6.062417984E0,4.046200812E-1
4.028322742E0,1.723825216E0,6.079177380E0,2.729389966E-1
4.030364042E0,1.764526606E0,6.110301971E0,1.532289088E-1
4.032405342E0,1.786074519E0,6.182127953E0,5.746084079E-2
4.034446608E0,1.800439715E0,6.198887348E0,1.197100803E-2
4.036459408E0,1.819593310E0,6.275501728E0,-7.422025502E-2
4.038472141E0,1.833958507E0,6.313809395E0,-1.556231081E-1
4.040484874E0,1.829170108E0,6.342539787E0,-1.939303428E-1
4.042497707E0,1.819593310E0,6.402394772E0,-2.561795712E-1
4.044510540E0,1.826775908E0,6.421548367E0,-3.567360640E-1
4.046523406E0,1.817199111E0,6.440701962E0,-4.046200812E-1
4.048536306E0,1.795651317E0,6.452672958E0,-5.267243981E-1
4.050549272E0,1.805228114E0,6.440701962E0,-6.392518282E-1
4.052562272E0,1.805228114E0,6.431125164E0,-6.943184733E-1
4.054575338E0,1.793257117E0,6.385635376E0,-7.900865674E-1
4.056616771E0,1.776497602E0,6.342539787E0,-8.523358107E-1
4.058658271E0,1.771709204E0,6.318597794E0,-8.499416113E-1
4.060699737E0,1.735796213E0,6.263530731E0,-8.499416113E-1
4.062741203E0,1.675941229E0,6.246771336E0,-8.020575643E-1
4.064782736E0,1.637633920E0,6.220435143E0,-7.805097699E-1
4.066824269E0,1.532289028E0,6.165368557E0,-7.206547260E-1
4.068865735E0,1.419761658E0,6.098330975E0,-6.392518282E-1
4.070907168E0,1.357512355E0,6.060023785E0,-6.009446383E-1
4.072948534E0,1.185129881E0,5.973832607E0,-5.027823448E-1
4.074989934E0,9.169792533E-1,5.897218227E0,-3.711012602E-1
4.077033500E0,8.092401624E-1,5.851728439E0,-3.184288144E-1
4.079077166E0,6.967126727E-1,5.732017994E0,-2.657563984E-1
4.081120899E0,4.860229492E-1,5.581183434E0,-1.867477298E-1
4.083163232E0,2.370259613E-1,5.411195278E0,-1.221042871E-1
4.085207032E0,1.053448766E-1,5.315426826E0,-1.149216816E-1
4.087250865E0,-1.771709323E-1,5.145438671E0,-1.053448766E-1
4.089294631E0,-4.620809257E-1,4.939537525E0,-1.053448766E-1
4.091338397E0,-6.009446383E-1,4.838681698E0,-1.125274822E-1
4.093382097E0,-9.002198577E-1,4.649539471E0,-1.556231081E-1
4.095425763E0,-1.170764685E0,4.467580318E0,-2.418143749E-1
4.097469296E0,-1.297657371E0,4.374206543E0,-2.777273953E-1
4.099512762E0,-1.522712231E0,4.230554581E0,-3.687070608E-1
4.101556128E0,-1.740584612E0,4.118026733E0,-4.525041282E-1
4.103602361E0,-1.963245392E0,4.017470360E0,-5.602431893E-1
4.105648561E0,-2.059013367E0,3.962403774E0,-6.177040339E-1
4.107694727E0,-2.267308950E0,3.873818398E0,-7.062895298E-1
4.109740793E0,-2.430114746E0,3.794809580E0,-8.188169599E-1
4.111786793E0,-2.516305923E0,3.754108191E0,-8.834604025E-1
4.113832726E0,-2.636016130E0,3.663128614E0,-1.019929886E0
4.115878626E0,-2.738966703E0,3.586514235E0,-1.151610970E0
4.117896192E0,-2.789244890E0,3.538630009E0,-1.221042871E0
4.119913725E0,-2.870647907E0,3.438073635E0,-1.352723956E0
4.121931225E0,-2.947262287E0,3.363853455E0,-1.458068848E0
4.123948758E0,-2.995146275E0,3.315969467E0,-1.501164436E0
4.125966224E0,-3.112462282E0,3.193865061E0,-1.594538331E0
4.127983657E0,-3.241749048E0,3.071760893E0,-1.673547029E0
4.130001090E0,-3.409343243E0,2.954444885E0,-1.721431017E0
4.132018523E0,-3.481169224E0,2.887407303E0,-1.752555609E0
4.134035923E0,-3.608062029E0,2.758120298E0,-1.802833915E0
4.136053323E0,-3.746925592E0,2.609679937E0,-1.838746905E0
4.138068489E0,-3.809175014E0,2.540247917E0,-1.853112102E0
4.140083655E0,-3.943250179E0,2.396595955E0,-1.886630893E0
4.142098821E0,-4.050989151E0,2.272097349E0,-1.898601890E0
4.144113987E0,-4.086902142E0,2.214636564E0,-1.900996208E0
4.146129120E0,-4.173093796E0,2.104503393E0,-1.886630893E0
4.148144253E0,-4.288015366E0,2.001552582E0,-1.821987510E0
4.150159386E0,-4.347870350E0,1.941697598E0,-1.788468719E0
4.152174552E0,-4.477157116E0,1.812410712E0,-1.714248419E0
4.154189752E0,-4.620809078E0,1.709460020E0,-1.628057122E0
4.156204985E0,-4.757278919E0,1.584961534E0,-1.558625340E0
4.158220318E0,-4.821922302E0,1.520318031E0,-1.522712231E0
4.160235751E0,-4.956296921E0,1.405396342E0,-1.429338455E0
4.162251284E0,-5.107131481E0,1.300051570E0,-1.304839969E0
4.164263884E0,-5.188534260E0,1.256955862E0,-1.235408068E0
4.166276484E0,-5.344157696E0,1.165976286E0,-1.110909581E0
4.168289117E0,-5.521328449E0,1.074996591E0,-9.672574997E-1
4.170301750E0,-5.602731228E0,1.029506683E0,-8.930372596E-1
4.172314416E0,-5.787084579E0,9.026140571E-1,-7.398083210E-1
4.174327082E0,-5.978621006E0,7.517793179E-1,-5.985504389E-1
4.176339748E0,-6.074388981E0,6.871358752E-1,-5.291185975E-1
4.178352381E0,-6.270713329E0,5.291185975E-1,-4.094084799E-1
4.180364947E0,-6.467038155E0,3.495534360E-1,-2.777273953E-1
4.182377513E0,-6.670545101E0,2.705447972E-1,-2.035071403E-1
4.184399246E0,-6.787860870E0,1.197100878E-1,-4.548983276E-2
4.186421012E0,-7.010521889E0,-4.548983276E-2,8.858546615E-2
4.188442812E0,-7.252336025E0,-2.154781520E-1,2.250549644E-1
4.190464645E0,-7.489362240E0,-3.040636182E-1,2.896983922E-1
4.192486478E0,-7.618649006E0,-4.644751251E-1,4.022258818E-1
4.194508344E0,-7.889194012E0,-5.770025849E-1,4.620809257E-1
4.196530210E0,-8.150161743E0,-7.278373241E-1,4.764461517E-1
4.198552143E0,-8.272266388E0,-7.900865674E-1,4.644751251E-1
4.200574043E0,-8.511686325E0,-9.002198577E-1,4.525041282E-1
4.202595943E0,-8.755894661E0,-1.000776291E0,4.285621047E-1
4.204617843E0,-8.863634109E0,-1.065419793E0,4.189853072E-1
4.206639709E0,-9.076718330E0,-1.216254473E0,4.022258818E-1
4.208661542E0,-9.316138268E0,-1.383848548E0,3.639186621E-1
4.210683375E0,-9.450213432E0,-1.470039845E0,3.399766386E-1
4.212705208E0,-9.732728958E0,-1.680729628E0,2.681505978E-1
4.214727008E0,-1.007031155E1,-1.869871497E0,1.556231081E-1
4.216748808E0,-1.042225933E1,-1.956062794E0,3.351882473E-2
4.218798974E0,-1.080772591E1,-2.178723574E0,-1.077390760E-1
4.220849107E0,-1.116925049E1,-2.329558372E0,-2.322375625E-1
4.222899240E0,-1.136557484E1,-2.406172752E0,-3.112462163E-1
4.224949340E0,-1.179892540E1,-2.564189911E0,-4.908113480E-1
4.226999440E0,-1.224903488E1,-2.774879694E0,-6.799532771E-1
4.229049473E0,-1.245493698E1,-2.896984100E0,-7.852981687E-1
4.231099539E0,-1.285716248E1,-3.153163671E0,-1.005564690E0
4.233149639E0,-1.330487823E1,-3.397372246E0,-1.254561663E0
4.235199739E0,-1.354190445E1,-3.509899616E0,-1.393425345E0
4.237249805E0,-1.402074432E1,-3.737348795E0,-1.673547029E0
4.239299871E0,-1.447324848E1,-3.892971992E0,-1.951274395E0
4.241349937E0,-1.468633270E1,-3.974374771E0,-2.109291792E0
4.243400003E0,-1.508406925E1,-4.094084740E0,-2.410961151E0
4.245440803E0,-1.538334465E1,-4.249708176E0,-2.691082716E0
4.247481569E0,-1.555093861E1,-4.460397720E0,-2.937685490E0
4.249522235E0,-1.561079407E1,-4.594472885E0,-3.047818661E0
4.251562835E0,-1.560839939E1,-4.915595531E0,-3.241749048E0
4.253603435E0,-1.558445740E1,-5.257966042E0,-3.399766445E0
4.255644068E0,-1.556769753E1,-5.451896667E0,-3.462015629E0
4.257684634E0,-1.557488060E1,-6.081571579E0,-3.567360640E0
4.259725100E0,-1.557009220E1,-6.306626320E0,-3.584120035E0
4.261765500E0,-1.556769753E1,-6.524498940E0,-3.584120035E0
4.263805800E0,-1.553417873E1,-7.000945091E0,-3.569754839E0
4.265847466E0,-1.541925716E1,-7.565976620E0,-3.502717018E0
4.267887732E0,-1.530673027E1,-7.886799812E0,-3.454833031E0
4.269927998E0,-1.498590660E1,-8.607454300E0,-3.351882458E0
4.271968264E0,-1.449958515E1,-9.433453560E0,-3.131615877E0
4.274008497E0,-1.387948608E1,-9.893140793E0,-2.983175278E0
4.276048730E0,-1.353472137E1,-1.086279202E1,-2.643198729E0
4.278088963E0,-1.275899982E1,-1.192821217E1,-2.310404539E0
