"Time (s)","Acceleration x (m/s^2)","Acceleration y (m/s^2)","Acceleration z (m/s^2)"
1.121540700E-2,6.689698696E0,3.940855980E0,6.574777126E0
1.322940700E-2,6.723217487E0,4.010287762E0,6.534075737E0
1.616640700E-2,6.965032101E0,4.189853191E0,6.546046734E0
1.818040700E-2,7.027281284E0,4.254496574E0,6.584353924E0
2.019340700E-2,7.120655060E0,4.345476151E0,6.648997307E0
2.220640700E-2,7.199663639E0,4.390965939E0,6.768707275E0
2.421940700E-2,7.230788231E0,4.417302132E0,6.823774338E0
2.623240700E-2,7.278672218E0,4.458003521E0,6.926724911E0
2.824515700E-2,7.328950882E0,4.489128113E0,6.984185696E0
3.025815700E-2,7.338527679E0,4.505887508E0,7.008127689E0
3.227115700E-2,7.376834869E0,4.520252705E0,7.065588474E0
3.428444200E-2,7.434295654E0,4.546588898E0,7.142202854E0
3.629756700E-2,7.477391243E0,4.544194698E0,7.197269440E0
3.831067800E-2,7.522881031E0,4.551377296E0,7.369652271E0
4.032387800E-2,7.609072208E0,4.575319290E0,7.549217224E0
4.233715000E-2,7.726387978E0,4.606443882E0,7.692869186E0
4.435048300E-2,7.788637638E0,4.608838081E0,7.740753174E0
4.636379000E-2,7.927501202E0,4.627991676E0,7.805397034E0
4.837707500E-2,8.066365242E0,4.661510944E0,7.853281021E0
5.039034100E-2,8.128614426E0,4.671087742E0,7.862857819E0
5.240359100E-2,8.262689590E0,4.714183331E0,7.879617214E0
5.441682600E-2,8.360851288E0,4.771644115E0,7.865252018E0
5.642993700E-2,8.413523674E0,4.800374508E0,7.862857819E0
5.844293700E-2,8.516474724E0,4.862623692E0,7.884405613E0
6.045698700E-2,8.643367767E0,4.886565685E0,7.886799812E0
6.246998700E-2,8.715193748E0,4.903624535E0,7.889194012E0
6.448294100E-2,8.887576103E0,4.927566528E0,7.917924404E0
6.649585400E-2,9.033622742E0,4.961085320E0,7.932289600E0
6.850877000E-2,9.186851501E0,4.968267918E0,7.944260597E0
7.052169000E-2,9.263465881E0,4.965873718E0,7.956231594E0
7.253465100E-2,9.402329445E0,4.932354927E0,8.011298180E0
7.454761300E-2,9.584288597E0,4.970662117E0,8.080730438E0
7.656057700E-2,9.680056572E0,4.994604111E0,8.104672432E0
7.857357700E-2,9.806949615E0,5.064035892E0,8.116642952E0
8.058657700E-2,9.919476509E0,5.087977886E0,8.231564522E0
8.259961000E-2,9.993697166E0,5.095160484E0,8.303390503E0
8.461264300E-2,1.014932060E1,5.123890877E0,8.480561256E0
8.662570900E-2,1.027381897E1,5.162198067E0,8.691251755E0
8.863880900E-2,1.033367348E1,5.174169064E0,8.818143845E0
9.065190900E-2,1.046296024E1,5.181351662E0,9.059958458E0
9.266504200E-2,1.053957558E1,5.207687855E0,9.270648003E0
9.467814200E-2,1.059464169E1,5.248389244E0,9.455001831E0
9.669300800E-2,1.063294888E1,5.250783443E0,9.550769806E0
9.870614100E-2,1.071914005E1,5.272331238E0,9.730335236E0
1.007192740E-1,1.079096603E1,5.286696434E0,9.864410400E0
1.027324070E-1,1.083885002E1,5.286696434E0,9.929053307E0
1.047454730E-1,1.095616627E1,5.281908035E0,1.008707142E1
1.067585390E-1,1.103278065E1,5.274725437E0,1.022593498E1
1.087716390E-1,1.105911732E1,5.274725437E0,1.029776096E1
1.107847390E-1,1.107108784E1,5.262754440E0,1.045817184E1
1.127978390E-1,1.107348251E1,5.298667431E0,1.060661316E1
1.148109720E-1,1.106390572E1,5.303455830E0,1.068083286E1
1.168242050E-1,1.102799225E1,5.303455830E0,1.080293751E1
1.188374710E-1,1.096813679E1,5.296273232E0,1.091546440E1
1.208500710E-1,1.092743587E1,5.293879032E0,1.096813679E1
1.228633370E-1,1.084124470E1,5.262754440E0,1.103517532E1
1.248767030E-1,1.072153473E1,5.210082054E0,1.109981823E1
1.268901030E-1,1.057788277E1,5.147832870E0,1.108784771E1
1.289035360E-1,1.048929691E1,5.109525681E0,1.105672264E1
1.309169690E-1,1.032649136E1,5.020940304E0,1.098489666E1
1.329303690E-1,1.016847420E1,4.951508522E0,1.087715721E1
1.349438020E-1,1.008946514E1,4.925172329E0,1.080293751E1
1.369571680E-1,9.943418503E0,4.893748283E0,1.065928555E1
1.389704340E-1,9.821314812E0,4.884171486E0,1.044141293E1
1.409836340E-1,9.730335236E0,4.876988888E0,1.031691456E1
1.429968340E-1,9.519645691E0,4.860229492E0,1.006552315E1
1.450100000E-1,9.275436401E0,4.850652695E0,9.794978142E0
1.470231660E-1,9.155726433E0,4.865017891E0,9.653720856E0
1.490362990E-1,8.916306496E0,4.879383087E0,9.332897186E0
1.510493990E-1,8.727164268E0,4.857835293E0,9.007286072E0
1.530624320E-1,8.523657799E0,4.848258495E0,8.681674957E0
1.550754320E-1,8.351274490E0,4.802768707E0,8.317755699E0
1.570873980E-1,8.272266388E0,4.795586109E0,8.128614426E0
1.591011980E-1,8.056788445E0,4.814739704E0,7.805397034E0
1.611149640E-1,7.949048996E0,4.821922302E0,7.637802601E0
1.631287300E-1,7.747935772E0,4.821922302E0,7.293037415E0
1.651424960E-1,7.551611423E0,4.807557106E0,6.991368294E0
1.671562960E-1,7.463026047E0,4.793191910E0,6.842927933E0
1.691700620E-1,7.281066418E0,4.788403511E0,6.543652534E0
1.711837950E-1,7.094318867E0,4.783615112E0,6.222829342E0
1.731975280E-1,6.996156693E0,4.778826714E0,6.071994781E0
1.752112280E-1,6.783072472E0,4.740519524E0,5.765536785E0
1.772531610E-1,6.409577370E0,4.680664539E0,5.329792023E0
1.792951940E-1,6.294655323E0,4.654327869E0,5.188534260E0
1.813371940E-1,6.086359978E0,4.606443882E0,4.963479519E0
1.833792600E-1,5.880458832E0,4.565742493E0,4.759673119E0
1.854212260E-1,5.791872978E0,4.553771496E0,4.666299343E0
1.874631920E-1,5.655403614E0,4.515464306E0,4.513070107E0
1.895051580E-1,5.487809658E0,4.481945515E0,4.405331135E0
1.915470910E-1,5.406406879E0,4.462791920E0,4.364629745E0
1.935889910E-1,5.262754440E0,4.438849926E0,4.326322556E0
1.956308570E-1,5.102343082E0,4.419696331E0,4.323928356E0
1.976727570E-1,5.032911301E0,4.400542736E0,4.328716755E0
1.997147230E-1,4.891354084E0,4.343081951E0,4.369418144E0
2.017567560E-1,4.723760128E0,4.314351559E0,4.414907932E0
2.037987560E-1,4.594472885E0,4.266467571E0,4.412513733E0
2.058407890E-1,4.522646904E0,4.247313976E0,4.412513733E0
2.078828220E-1,4.398148537E0,4.189853191E0,4.410119534E0
2.099248880E-1,4.273650169E0,4.141968727E0,4.395754337E0
2.119669210E-1,4.223371983E0,4.113238335E0,4.390965939E0
2.140088870E-1,4.137180328E0,4.101267338E0,4.367023945E0
2.160507870E-1,4.067748547E0,4.072536945E0,4.302380562E0
2.180919200E-1,4.041412354E0,4.062960148E0,4.254496574E0
2.201328860E-1,3.988739967E0,4.067748547E0,4.170699596E0
2.221737860E-1,3.969586372E0,4.094084740E0,4.096478939E0
2.242269860E-1,3.948038578E0,4.103661537E0,4.031835556E0
2.262802860E-1,3.940855980E0,4.106055737E0,4.022258759E0
2.283335860E-1,3.907337189E0,4.127603531E0,4.022258759E0
2.303869190E-1,3.892971992E0,4.132391930E0,4.043806553E0
2.324402520E-1,3.854664803E0,4.134786129E0,4.086902142E0
2.344935850E-1,3.830722809E0,4.118026733E0,4.118026733E0
2.365469510E-1,3.818751812E0,4.108449936E0,4.201824188E0
2.385720170E-1,3.785232782E0,4.091690540E0,4.278438568E0
2.405970170E-1,3.773261786E0,4.072536945E0,4.319139957E0
2.426220170E-1,3.727771997E0,4.043806553E0,4.381389141E0
2.446469830E-1,3.679888010E0,4.039018154E0,4.426878929E0
2.466719830E-1,3.643975019E0,4.027047157E0,4.455609322E0
2.486969490E-1,3.617638826E0,3.998316765E0,4.489128113E0
2.507218820E-1,3.574543238E0,3.993528366E0,4.546588898E0
2.527468480E-1,3.557783842E0,3.988739967E0,4.568136692E0
2.547718810E-1,3.531447411E0,3.967192173E0,4.611232281E0
2.567969470E-1,3.490746021E0,3.943250179E0,4.651933670E0
2.588502800E-1,3.435679436E0,3.924096584E0,4.663905144E0
2.609036130E-1,3.387795448E0,3.895366192E0,4.663905144E0
2.629569460E-1,3.332728863E0,3.888183594E0,4.666299343E0
2.650102790E-1,3.327940464E0,3.876212597E0,4.659116745E0
2.670636120E-1,3.306392431E0,3.876212597E0,4.611232281E0
2.691169120E-1,3.308786631E0,3.912125587E0,4.541800499E0
2.711702450E-1,3.303998232E0,3.921702385E0,4.503493309E0
2.732236450E-1,3.327940464E0,3.933673382E0,4.453215122E0
2.752771780E-1,3.349488258E0,3.986345768E0,4.390965939E0
2.773308110E-1,3.380612850E0,4.039018154E0,4.326322556E0
2.793851770E-1,3.378218651E0,4.041412354E0,4.311957359E0
2.814397100E-1,3.380612850E0,4.074931145E0,4.273650169E0
2.834943760E-1,3.347094059E0,4.096478939E0,4.220977783E0
2.855367090E-1,3.327940464E0,4.103661537E0,4.204218388E0
2.875789750E-1,3.289633036E0,4.141968727E0,4.170699596E0
2.896212080E-1,3.222595453E0,4.137180328E0,4.118026733E0
2.916633740E-1,3.181894064E0,4.134786129E0,4.094084740E0
2.937056400E-1,3.124433279E0,4.127603531E0,4.031835556E0
2.957479060E-1,3.043030262E0,4.103661537E0,3.950432777E0
2.977901060E-1,2.992752075E0,4.089296341E0,3.909731388E0
2.998322720E-1,2.930502892E0,4.062960148E0,3.804386616E0
3.018744050E-1,2.837129116E0,4.024652958E0,3.677493811E0
3.039165050E-1,2.817975283E0,4.012681961E0,3.610456228E0
3.059586380E-1,2.765302896E0,3.998316765E0,3.497928619E0
3.080008040E-1,2.705447912E0,3.991134167E0,3.385401249E0
3.100430370E-1,2.698265314E0,3.998316765E0,3.303998232E0
3.120852370E-1,2.703053713E0,4.024652958E0,3.263296843E0
3.141274370E-1,2.698265314E0,4.043806553E0,3.215412855E0
3.161696370E-1,2.700659513E0,4.074931145E0,3.189076662E0
3.182118030E-1,2.717418909E0,4.096478939E0,3.174711466E0
3.202257690E-1,2.765302896E0,4.158728123E0,3.124433279E0
3.222397350E-1,2.849100113E0,4.218583584E0,3.090914488E0
3.242537010E-1,2.887407303E0,4.261679173E0,3.078943491E0
3.262676670E-1,2.956839085E0,4.316745758E0,3.052607059E0
3.282816670E-1,3.069366693E0,4.369418144E0,3.043030262E0
3.302956670E-1,3.119644880E0,4.398148537E0,3.064578056E0
3.323096670E-1,3.217807055E0,4.462791920E0,3.129221678E0
3.343236330E-1,3.349488258E0,4.510675907E0,3.246537447E0
3.363375990E-1,3.514688015E0,4.537012100E0,3.323152065E0
3.383515320E-1,3.682282209E0,4.630385876E0,3.651157618E0
3.403646980E-1,3.780444384E0,4.663905144E0,3.780444384E0
3.423777980E-1,3.971980572E0,4.730942726E0,4.053383350E0
3.443908310E-1,4.074931145E0,4.781220913E0,4.168305397E0
3.464038640E-1,4.297592163E0,4.876988888E0,4.407725334E0
3.484169640E-1,4.532223701E0,5.016151905E0,4.637568474E0
3.504300970E-1,4.623203278E0,5.059247494E0,4.754884720E0
3.524432630E-1,4.797980309E0,5.145438671E0,4.973056316E0
3.544563630E-1,4.963479519E0,5.222053051E0,5.181351662E0
3.564694630E-1,5.044882298E0,5.260360241E0,5.267542839E0
3.584826290E-1,5.178957462E0,5.320215225E0,5.430348873E0
3.604958950E-1,5.291484833E0,5.351340294E0,5.633855820E0
3.625092280E-1,5.351340294E0,5.372888088E0,5.732017994E0
3.645226280E-1,5.454290867E0,5.394435883E0,5.906795025E0
3.665360610E-1,5.518934250E0,5.389647484E0,6.033687592E0
3.685494610E-1,5.590760231E0,5.372888088E0,6.170156956E0
3.705627940E-1,5.619490623E0,5.368099689E0,6.225223541E0
3.725761600E-1,5.672163010E0,5.392041683E0,6.323386192E0
3.745895260E-1,5.720046997E0,5.401618481E0,6.373664379E0
3.766028590E-1,5.746383190E0,5.418377876E0,6.388029575E0
3.786161920E-1,5.772719383E0,5.471050262E0,6.416759968E0
3.806294250E-1,5.796661377E0,5.504569054E0,6.428730965E0
3.826426910E-1,5.825392246E0,5.542876244E0,6.428730965E0
3.846559240E-1,5.866093636E0,5.609913826E0,6.435913563E0
3.866692240E-1,5.890035629E0,5.667374611E0,6.435913563E0
3.886825240E-1,5.899612427E0,5.674557209E0,6.426336765E0
3.906958240E-1,5.894824028E0,5.693710804E0,6.397606373E0
3.927090570E-1,5.897218227E0,5.729623795E0,6.378452778E0
3.947223230E-1,5.937919617E0,5.751171589E0,6.354510784E0
3.967355560E-1,5.947496414E0,5.763142586E0,6.347328186E0
3.987488220E-1,6.012139797E0,5.799055576E0,6.340145588E0
4.007621880E-1,6.045658588E0,5.811026573E0,6.325780392E0
4.027755540E-1,6.076783180E0,5.825392246E0,6.309020519E0
4.047889200E-1,6.134243965E0,5.844545841E0,6.268319130E0
4.068022860E-1,6.186916351E0,5.887641430E0,6.244377136E0
4.088155860E-1,6.230011940E0,5.909189224E0,6.241982937E0
4.108288520E-1,6.328174591E0,5.945102215E0,6.249165535E0
4.128421520E-1,6.416759968E0,6.014533997E0,6.275501728E0
4.148554180E-1,6.464643955E0,6.048052788E0,6.289866924E0
4.168687180E-1,6.569988728E0,6.103119373E0,6.325780392E0
4.188819840E-1,6.663362503E0,6.146214962E0,6.380846977E0
4.209236840E-1,6.766313076E0,6.198887348E0,6.455067158E0
4.229654170E-1,6.830956936E0,6.246771336E0,6.560411930E0
4.250071500E-1,6.876446724E0,6.258742332E0,6.672939301E0
4.270488500E-1,6.921936512E0,6.253953934E0,6.718429089E0
4.290905500E-1,6.986579895E0,6.241982937E0,6.785466671E0
4.311322830E-1,7.039252281E0,6.215646744E0,6.814197540E0
4.331740160E-1,7.048829079E0,6.184522152E0,6.804620743E0
4.352157820E-1,7.123049259E0,6.139032364E0,6.804620743E0
4.372575150E-1,7.008127689E0,5.341763496E0,5.655403614E0
4.392992480E-1,7.005733490E0,5.097554684E0,5.348946095E0
4.413410480E-1,7.024887085E0,5.269937038E0,5.803843975E0
4.433828140E-1,7.046434879E0,5.739200592E0,6.505345345E0
4.454246140E-1,7.158962250E0,6.218040943E0,7.218817234E0
4.474663470E-1,7.266701221E0,6.438307762E0,7.520486832E0
4.495080800E-1,7.534852028E0,6.802226067E0,7.822156429E0
4.515498130E-1,7.738358974E0,6.967426300E0,7.762300968E0
4.535916460E-1,7.824550629E0,7.010521889E0,7.685686588E0
4.556334460E-1,7.992144585E0,7.046434879E0,7.580341816E0
4.576752790E-1,8.183680534E0,7.015310287E0,7.570765018E0
4.597171120E-1,8.411129951E0,6.979397297E0,7.649773598E0
4.617589120E-1,8.540416718E0,6.984185696E0,7.695263386E0
4.638007120E-1,8.796596527E0,7.015310287E0,7.788637638E0
4.658425450E-1,8.921094894E0,7.041646481E0,7.834127426E0
4.678968110E-1,9.165303230E0,7.127837658E0,7.915530205E0
4.699511440E-1,9.404723167E0,7.223605633E0,8.001721382E0
4.720055100E-1,9.665691376E0,7.300220490E0,8.107066154E0
4.740598760E-1,9.962572098E0,7.367258072E0,8.248324394E0
4.761143420E-1,1.008467674E1,7.403171062E0,8.329727173E0
4.781688080E-1,1.036719227E1,7.501333237E0,8.482955933E0
4.802232740E-1,1.065928555E1,7.592312813E0,8.571541786E0
4.822493070E-1,1.081011963E1,7.642591000E0,8.581118584E0
4.842752730E-1,1.110221291E1,7.743147373E0,8.588300705E0
4.863012390E-1,1.141585255E1,7.836521626E0,8.581118584E0
4.883272050E-1,1.156429386E1,7.886799812E0,8.564358711E0
4.903532050E-1,1.180371380E1,8.020874977E0,8.497321129E0
4.923791710E-1,1.199524975E1,8.138191223E0,8.399158478E0
4.944052040E-1,1.206707573E1,8.193257332E0,8.332120895E0
4.964312370E-1,1.216044998E1,8.293813705E0,8.198045731E0
4.984573370E-1,1.220115089E1,8.356062889E0,8.073547363E0
5.004835030E-1,1.212932491E1,8.368034363E0,7.975385189E0
5.034165030E-1,1.201440334E1,8.348880768E0,7.865252018E0
5.056034070E-1,1.181329060E1,8.269871712E0,7.786243439E0
5.076184070E-1,1.169836903E1,8.221987724E0,7.750329971E0
5.096334070E-1,1.147810268E1,8.066365242E0,7.654561996E0
5.116484070E-1,1.121713448E1,7.862857819E0,7.539640427E0
5.136624070E-1,1.107348251E1,7.747935772E0,7.474997044E0
5.156761570E-1,1.077899551E1,7.477391243E0,7.314585686E0
5.176901570E-1,1.044141293E1,7.175721645E0,7.108684063E0
5.197041570E-1,1.008946514E1,6.838139534E0,6.886023521E0
5.217181570E-1,9.727940559E0,6.455067158E0,6.646603107E0
5.237320320E-1,9.545981407E0,6.261136532E0,6.519710541E0
5.257459200E-1,9.177274704E0,5.875670433E0,6.282684326E0
5.277597200E-1,8.992920876E0,5.669768810E0,6.172551155E0
5.297736290E-1,8.607454300E0,5.262754440E0,6.012139797E0
5.317873790E-1,8.205228806E0,4.841075897E0,5.866093636E0
5.338011480E-1,7.987356186E0,4.620809078E0,5.799055576E0
5.358148620E-1,7.563582420E0,4.180276394E0,5.681739807E0
5.378285280E-1,7.115866661E0,3.787626982E0,5.562029839E0
5.398421530E-1,6.881235123E0,3.581725836E0,5.511751652E0
5.418557410E-1,6.356904984E0,3.189076662E0,5.432743073E0
5.438692410E-1,5.813420773E0,2.827552319E0,5.315426826E0
5.458826620E-1,5.205293655E0,2.631227732E0,5.143044472E0
5.478960620E-1,4.891354084E0,2.226607561E0,5.071218491E0
5.499095380E-1,4.206612587E0,1.843535304E0,4.934749126E0
5.519229470E-1,3.473986626E0,1.434126854E0,4.786009312E0
5.539363380E-1,3.088520288E0,1.228225470E0,4.707000732E0
5.559496710E-1,2.238578558E0,8.164227605E-1,4.551377296E0
5.579630310E-1,1.323993564E0,4.118026793E-1,4.352658749E0
5.599764150E-1,8.236053586E-1,2.130839527E-1,4.192247391E0
5.619897850E-1,-2.274491638E-1,-2.178723514E-1,3.806780815E0
5.640031770E-1,-1.355118155E0,-5.985504389E-1,3.280056238E0
5.660165560E-1,-1.941697598E0,-7.924807668E-1,3.002328873E0
5.680299220E-1,-3.119644880E0,-1.252167463E0,2.425326347E0
5.700432550E-1,-4.333505154E0,-1.786074519E0,1.812410712E0
5.720565210E-1,-5.672163010E0,-2.363077164E0,1.122880578E0
5.740698210E-1,-6.366481781E0,-2.655169725E0,7.661445141E-1
5.760831540E-1,-7.831733227E0,-3.174711466E0,1.197100803E-2
5.780964540E-1,-9.373599052E0,-3.734954596E0,-8.667010069E-1
5.801097870E-1,-1.020917511E1,-4.041412354E0,-1.381454349E0
5.821231200E-1,-1.274463463E1,-4.809951305E0,-3.210624456E0
5.841384200E-1,-1.361612415E1,-5.028122902E0,-3.883395195E0
5.861516860E-1,-1.448521996E1,-5.226841450E0,-4.587290287E0
5.881649520E-1,-1.622849846E1,-5.681739807E0,-6.098330975E0
5.901781850E-1,-1.799541855E1,-6.127061367E0,-7.714416981E0
5.921914850E-1,-1.892197418E1,-6.342539787E0,-8.504503250E0
5.942047850E-1,-2.075832748E1,-6.711246490E0,-1.003679276E1
5.962181510E-1,-2.252046013E1,-7.022492886E0,-1.153795719E1
5.982315840E-1,-2.417245865E1,-7.154173851E0,-1.225861168E1
6.002449840E-1,-2.495566177E1,-7.415142059E0,-1.364724922E1
6.022584170E-1,-2.632514572E1,-7.592312813E0,-1.489013863E1
6.042718830E-1,-2.734507561E1,-7.726387978E0,-1.597231770E1
6.062853830E-1,-2.773054123E1,-7.774271965E0,-1.644636917E1
6.082988830E-1,-2.834824562E1,-7.862857819E0,-1.713829422E1
6.103123490E-1,-2.880075073E1,-7.984961987E0,-1.742559814E1
6.123258490E-1,-2.897552681E1,-8.109460831E0,-1.742081070E1
6.143393490E-1,-2.922452354E1,-8.480561256E0,-1.714308357E1
6.163529150E-1,-2.932986832E1,-9.024045944E0,-1.646552277E1
6.183664480E-1,-2.935381126E1,-9.354445457E0,-1.594837570E1
6.203799480E-1,-2.932747459E1,-1.004158115E1,-1.469830322E1
6.223934480E-1,-2.901383400E1,-1.061379528E1,-1.339825153E1
6.244068810E-1,-2.869540596E1,-1.081969643E1,-1.272069263E1
6.264203140E-1,-2.782152176E1,-1.099686813E1,-1.136796856E1
6.284337140E-1,-2.683032227E1,-1.106390572E1,-1.011340714E1
6.304471140E-1,-2.583912277E1,-1.110221291E1,-9.057564735E0
6.324605140E-1,-2.535549355E1,-1.113094330E1,-8.626607895E0
6.344739470E-1,-2.436399460E1,-1.126501846E1,-7.932289600E0
6.364873800E-1,-2.331772804E1,-1.154274559E1,-7.446266651E0
6.385008130E-1,-2.277903366E1,-1.171991634E1,-7.295432091E0
6.405142130E-1,-2.168727684E1,-1.209820080E1,-7.173327446E0
6.425276130E-1,-2.053806114E1,-1.253633976E1,-7.273883820E0
6.445398790E-1,-1.993951035E1,-1.278773022E1,-7.393594265E0
6.465541790E-1,-1.862988281E1,-1.325699425E1,-7.707234383E0
6.485685120E-1,-1.708562279E1,-1.370710373E1,-8.047211647E0
6.505828450E-1,-1.615906525E1,-1.393694782E1,-8.162133217E0
6.525972450E-1,-1.388666916E1,-1.440860558E1,-8.245929718E0
6.546116450E-1,-1.100405025E1,-1.497872448E1,-7.992144585E0
6.566260450E-1,-7.549217224E0,-1.553178501E1,-7.345710278E0
6.586404110E-1,-5.638644218E0,-1.575683975E1,-6.886023521E0
6.606548110E-1,-1.522712231E0,-1.595555878E1,-5.743988991E0
6.626691440E-1,2.920926094E0,-1.574008083E1,-4.292803764E0
6.647118100E-1,7.690474987E0,-1.515350151E1,-2.592920542E0
6.667545100E-1,1.278773022E1,-1.405186939E1,-6.272808313E-1
6.687972100E-1,1.544319916E1,-1.330487823E1,5.291185975E-1
6.708399100E-1,2.092831612E1,-1.131769085E1,3.351882458E0
6.728826430E-1,2.632753944E1,-8.751106262E0,6.950666904E0
6.749253760E-1,3.192278862E1,-7.204452038E0,8.899546623E0
6.769680760E-1,3.436996078E1,-3.964797974E0,1.246930218E1
6.790108090E-1,3.902907944E1,-7.469909191E-1,1.555572701E1
6.810536090E-1,4.327639389E1,2.238578558E0,1.844792175E1
6.830964420E-1,4.522078323E1,3.579331636E0,1.972163773E1
6.851393420E-1,4.857027054E1,5.822998047E0,2.161066246E1
6.871822750E-1,5.111770248E1,7.510910034E0,2.282931137E1
6.892266080E-1,5.206101990E1,8.166921616E0,2.326505661E1
6.912709740E-1,5.334431076E1,9.138967514E0,2.380614662E1
6.933153740E-1,5.393119049E1,9.742305756E0,2.411021042E1
6.953598400E-1,5.401019669E1,9.929053307E0,2.425146675E1
6.974042400E-1,5.383990860E1,1.014692593E1,2.451961899E1
6.994486400E-1,5.332754898E1,1.020438671E1,2.479764557E1
7.014930400E-1,5.261886597E1,1.021875191E1,2.514719772E1
7.035374060E-1,5.180484009E1,1.019959831E1,2.558533669E1
7.055809390E-1,5.134275818E1,1.018283939E1,2.586306381E1
7.076244050E-1,5.033240509E1,1.008228302E1,2.655977821E1
7.096678380E-1,4.979131317E1,9.993697166E0,2.698833847E1
7.117267710E-1,4.866364670E1,9.787796021E0,2.800348091E1
7.137856370E-1,4.745217896E1,9.531616211E0,2.917903328E1
7.158444700E-1,4.627183914E1,9.261071205E0,3.040247154E1
7.179033030E-1,4.570201874E1,9.158121109E0,3.101538658E1
7.199621690E-1,4.460308075E1,9.040804863E0,3.219333267E1
7.220210690E-1,4.360200500E1,9.038411140E0,3.316059113E1
7.240800350E-1,4.260840988E1,9.138967514E0,3.381899643E1
7.261107350E-1,4.211999512E1,9.249100685E0,3.399377441E1
7.281414010E-1,4.118625641E1,9.562741280E0,3.401531982E1
7.301721010E-1,4.030758286E1,9.921871185E0,3.363224792E1
7.322028010E-1,3.987902069E1,1.011819553E1,3.331142426E1
7.345214070E-1,3.902907944E1,1.048450851E1,3.246387863E1
7.365354070E-1,3.811449432E1,1.077899551E1,3.137691116E1
7.385484070E-1,3.761410522E1,1.088912868E1,3.076160049E1
7.405614070E-1,3.650558853E1,1.102799225E1,2.941366577E1
7.425747400E-1,3.528694153E1,1.103996372E1,2.793404961E1
7.445879900E-1,3.463093185E1,1.101362705E1,2.717029953E1
7.475189900E-1,3.255964661E1,1.079814911E1,2.485989380E1
7.495344070E-1,3.112312508E1,1.057548809E1,2.323393250E1
7.515484070E-1,3.039289474E1,1.043662453E1,2.239117241E1
7.535624070E-1,2.893003654E1,1.015171432E1,2.067692375E1
7.555759070E-1,2.750548744E1,9.871592522E0,1.891000366E1
7.575895730E-1,2.683271599E1,9.715970039E0,1.800499535E1
7.596033230E-1,2.552787590E1,9.409511566E0,1.615906525E1
7.616177230E-1,2.429935074E1,9.119813919E0,1.433199024E1
7.636318890E-1,2.370798302E1,9.000102997E0,1.343177128E1
7.656458890E-1,2.202725410E1,8.631396294E0,1.085321522E1
7.676627640E-1,2.149574089E1,8.509291649E0,1.007509995E1
7.696793190E-1,2.044468689E1,8.255506516E0,8.652944565E0
7.716956190E-1,1.994908714E1,8.123826027E0,8.018480301E0
7.737117090E-1,1.897464752E1,7.853281021E0,6.919542313E0
7.757275420E-1,1.802893829E1,7.599495411E0,6.002563000E0
7.777431570E-1,1.756206894E1,7.453449249E0,5.617096424E0
7.797585850E-1,1.663311768E1,7.163750648E0,4.975450516E0
7.817738510E-1,1.570177364E1,6.905177116E0,4.520252705E0
7.837889130E-1,1.525166321E1,6.783072472E0,4.352658749E0
7.858037950E-1,1.438945103E1,6.519710541E0,4.072536945E0
7.878184610E-1,1.355148125E1,6.244377136E0,3.861847401E0
7.898329340E-1,1.315404320E1,6.091148376E0,3.775655985E0
7.918472840E-1,1.240226364E1,5.760748386E0,3.634398222E0
7.938615690E-1,1.165766716E1,5.442319870E0,3.497928619E0
7.958758410E-1,1.092982960E1,5.121496677E0,3.378218651E0
7.978901010E-1,1.058267117E1,4.956296921E0,3.315969467E0
7.999043090E-1,9.907505989E0,4.642356873E0,3.177105665E0
8.019185890E-1,9.323320389E0,4.319139957E0,3.021482468E0
8.039328960E-1,9.033622742E0,4.165910721E0,2.942473888E0
8.059472290E-1,8.504503250E0,3.878606796E0,2.743755102E0
8.079615860E-1,7.987356186E0,3.588908434E0,2.566584110E0
8.099759300E-1,7.740753174E0,3.445256233E0,2.473210335E0
8.119902960E-1,7.300220490E0,3.138798475E0,2.296039343E0
8.140046290E-1,6.871658325E0,2.803610086E0,2.185906172E0
8.160189950E-1,6.651391506E0,2.636016130E0,2.157175779E0
8.180333950E-1,6.258742332E0,2.305616140E0,2.102109194E0
8.200477950E-1,5.839757442E0,1.994369984E0,2.023100376E0
8.220620950E-1,5.418377876E0,1.848323703E0,1.932120800E0
8.240764280E-1,5.229235649E0,1.628057122E0,1.884236693E0
8.260907610E-1,4.647145271E0,1.335964561E0,1.726219416E0
8.281042270E-1,4.446032524E0,1.268926859E0,1.671152830E0
8.301177270E-1,4.249708176E0,1.199495077E0,1.608903527E0
8.321311930E-1,3.885789394E0,1.074996591E0,1.467645645E0
8.341446590E-1,3.541024208E0,9.648633003E-1,1.273715258E0
8.361581590E-1,3.373430252E0,9.193734527E-1,1.168370485E0
8.381717250E-1,3.045424461E0,8.547300100E-1,9.528923035E-1
8.401853250E-1,2.786850691E0,7.829039693E-1,7.565677166E-1
8.421989910E-1,2.674323320E0,7.589619160E-1,6.536170840E-1
8.442127570E-1,2.492363930E0,7.637503147E-1,4.764461517E-1
8.462266230E-1,2.377442360E0,7.685387731E-1,3.399766386E-1
8.482405230E-1,2.272097349E0,7.996633649E-1,2.896983922E-1
8.502545230E-1,2.229001760E0,8.667010069E-1,1.699883193E-1
8.522685890E-1,2.169146776E0,9.816226959E-1,8.858546615E-2
8.542826890E-1,2.092532396E0,1.096544385E0,4.309562966E-2
8.562968220E-1,2.056619167E0,1.163581967E0,1.436521020E-2
8.583109550E-1,1.982398987E0,1.292868972E0,-2.394201607E-2
8.603251210E-1,1.941697598E0,1.407790542E0,-7.900865376E-2
8.623392210E-1,1.934514999E0,1.455674648E0,-1.005564705E-1
8.643532870E-1,1.922544003E0,1.596932530E0,-1.532289088E-1
8.663673200E-1,1.886630893E0,1.692700624E0,-2.226607651E-1
8.683812860E-1,1.877054095E0,1.750161409E0,-2.537853718E-1
8.703952190E-1,1.891419291E0,1.857900500E0,-2.968810201E-1
8.724097190E-1,1.881842494E0,1.958456993E0,-3.256114423E-1
8.744236520E-1,1.903390408E0,2.008735180E0,-3.351882398E-1
8.764376520E-1,1.922544003E0,2.128445387E0,-3.256114423E-1
8.784516180E-1,1.944091797E0,2.250549555E0,-3.303998411E-1
8.804655510E-1,1.991975784E0,2.348711967E0,-3.136404157E-1
8.824794510E-1,2.020706177E0,2.398990154E0,-3.088520169E-1
8.844933170E-1,2.126051188E0,2.497152328E0,-3.160346150E-1
8.865071830E-1,2.252943754E0,2.628833532E0,-2.825157940E-1
8.885218830E-1,2.322375536E0,2.686294317E0,-2.561795712E-1
8.905366490E-1,2.434903145E0,2.813186884E0,-1.843535304E-1
8.925514490E-1,2.578555346E0,2.904166698E0,-1.101332754E-1
8.945662820E-1,2.650381327E0,2.942473888E0,-7.182604820E-2
8.965811150E-1,2.813186884E0,3.009511471E0,-1.436521020E-2
8.985959150E-1,2.987963676E0,3.066972494E0,4.548983276E-2
9.006107150E-1,3.193865061E0,3.105279684E0,9.576806426E-2
9.026254810E-1,3.284844637E0,3.160346270E0,1.939303428E-1
9.046402140E-1,3.466804028E0,3.217807055E0,3.351882398E-1
9.066548800E-1,3.634398222E0,3.270479441E0,4.692635238E-1
9.095868800E-1,3.758896589E0,3.335123062E0,6.655880809E-1
9.116064070E-1,3.914519787E0,3.428496838E0,9.002198577E-1
9.136204070E-1,3.967192173E0,3.483563423E0,1.034295082E0
9.156344070E-1,4.077325344E0,3.584120035E0,1.323993564E0
9.176479070E-1,4.141968727E0,3.691859007E0,1.649604917E0
9.196612400E-1,4.146757126E0,3.744531393E0,1.793257117E0
9.216749900E-1,4.144362926E0,3.845088005E0,2.047042370E0
9.236885900E-1,4.091690540E0,3.921702385E0,2.238578558E0
9.257020900E-1,4.041412354E0,4.000710964E0,2.379836559E0
9.277156610E-1,4.010287762E0,4.031835556E0,2.432508945E0
9.297295360E-1,3.919308186E0,4.098873138E0,2.559401512E0
9.317434240E-1,3.837905407E0,4.125209332E0,2.671929121E0
9.337573240E-1,3.792415380E0,4.127603531E0,2.724601507E0
9.357712330E-1,3.718195200E0,4.144362926E0,2.801215887E0
9.377851490E-1,3.696647406E0,4.149151325E0,2.829946518E0
9.397990720E-1,3.687070608E0,4.144362926E0,2.822763920E0
9.418130720E-1,3.629609823E0,4.156333923E0,2.803610086E0
9.438270720E-1,3.581725836E0,4.189853191E0,2.743755102E0
9.458411340E-1,3.529053211E0,4.211400986E0,2.715024710E0
9.478552510E-1,3.423708439E0,4.278438568E0,2.633621931E0
9.498692510E-1,3.380612850E0,4.299986362E0,2.588132143E0
9.518831980E-1,3.296815634E0,4.362235546E0,2.444479942E0
9.538970980E-1,3.239354849E0,4.398148537E0,2.384624958E0
9.559385260E-1,3.150769472E0,4.484339714E0,2.274491549E0
9.579787530E-1,3.078943491E0,4.568136692E0,2.130839586E0
9.600178390E-1,3.011905670E0,4.647145271E0,1.977610588E0
9.620558800E-1,2.971204281E0,4.695029736E0,1.850717902E0
9.640930000E-1,2.961627483E0,4.776432514E0,1.788468719E0
9.661291920E-1,2.925714493E0,4.891354084E0,1.678335428E0
9.681645620E-1,2.899378300E0,5.004180908E0,1.587355733E0
9.701992040E-1,2.892195702E0,5.049670696E0,1.551442742E0
9.722331690E-1,2.827552319E0,5.119102478E0,1.484405041E0
9.742664690E-1,2.825158119E0,5.169380665E0,1.417367458E0
9.762998690E-1,2.815581083E0,5.174169064E0,1.374271750E0
9.783333350E-1,2.798821688E0,5.183745861E0,1.206677675E0
9.803668350E-1,2.820369720E0,5.200505257E0,1.086967587E0
9.824002680E-1,2.846705914E0,5.202899456E0,1.053448796E0
9.844337680E-1,2.940079689E0,5.207687855E0,1.029506683E0
9.864673010E-1,3.062183857E0,5.226841450E0,1.051054597E0
9.885008670E-1,3.201047659E0,5.262754440E0,1.110909581E0
9.905627330E-1,3.301604033E0,5.298667431E0,1.201889277E0
9.926246660E-1,3.392583847E0,5.365705490E0,1.323993564E0
9.946866320E-1,3.421314240E0,5.396830082E0,1.376665950E0
9.967486320E-1,3.442862034E0,5.425560474E0,1.417367458E0
9.988106650E-1,3.447650433E0,5.461473465E0,1.474828243E0
1.000872665E0,3.426102638E0,5.485415459E0,1.493981838E0
1.002934631E0,3.390189648E0,5.518934250E0,1.491587639E0
1.004996564E0,3.296815634E0,5.545270443E0,1.462857246E0
1.007058430E0,3.263296843E0,5.547664642E0,1.426944256E0
1.009120296E0,3.167528868E0,5.569212437E0,1.247379065E0
1.011182196E0,3.122039080E0,5.583577633E0,1.185129881E0
1.013244162E0,3.033453465E0,5.602731228E0,1.046266198E0
1.015306162E0,2.990357876E0,5.614702225E0,9.624691010E-1
1.017348828E0,2.904166698E0,5.648221016E0,7.829039693E-1
1.019391428E0,2.808398485E0,5.684134007E0,6.129156351E-1
1.021433994E0,2.748543501E0,5.693710804E0,5.243301988E-1
1.023476527E0,2.631227732E0,5.693710804E0,3.591302633E-1
1.025519027E0,2.501940727E0,5.688922405E0,1.867477298E-1
1.027561593E0,2.444479942E0,5.684134007E0,1.101332754E-1
1.029604093E0,2.336740971E0,5.653009415E0,-2.154781483E-2
1.031646459E0,2.272097349E0,5.576395035E0,-1.699883193E-1
1.033688725E0,2.236184359E0,5.542876244E0,-2.537853718E-1
1.035730958E0,2.126051188E0,5.468656063E0,-4.046200812E-1
1.037773091E0,1.991975784E0,5.430348873E0,-5.291185975E-1
1.039815191E0,1.872265697E0,5.380070686E0,-6.799532771E-1
1.041857257E0,1.819593310E0,5.358522892E0,-7.469909191E-1
1.043899390E0,1.671152830E0,5.341763496E0,-8.882488012E-1
1.045941456E0,1.558625340E0,5.336975098E0,-9.792284966E-1
1.047983489E0,1.503558636E0,5.344157696E0,-1.015141487E0
1.050025455E0,1.395819545E0,5.353734493E0,-1.074996591E0
1.052039055E0,1.290474772E0,5.372888088E0,-1.084573388E0
1.054052588E0,1.252167463E0,5.356128693E0,-1.077390790E0
1.056066088E0,1.175553083E0,5.315426826E0,-1.058237195E0
1.058079521E0,1.063025594E0,5.262754440E0,-1.017535686E0
1.060092921E0,1.012747288E0,5.226841450E0,-9.864110947E-1
1.062106354E0,8.882488012E-1,5.135861874E0,-9.169792533E-1
1.064119820E0,7.445967197E-1,5.073612690E0,-8.547300100E-1
1.066133286E0,5.985504389E-1,5.035305500E0,-7.637503147E-1
1.068146752E0,5.123591423E-1,4.949114323E0,-7.110779285E-1
1.070160185E0,2.346317619E-1,4.802768707E0,-5.147533417E-1
1.072173518E0,1.244984865E-1,4.769249916E0,-4.381389022E-1
1.074186751E0,-1.675941236E-2,4.733336926E0,-3.471592367E-1
1.076199984E0,-3.399766386E-1,4.671087742E0,-1.292868853E-1
1.078213317E0,-6.943184733E-1,4.592078686E0,6.943184882E-2
1.080226650E0,-8.690952063E-1,4.551377296E0,1.604115069E-1
1.082240016E0,-1.206677675E0,4.458003521E0,3.088520169E-1
1.084253416E0,-1.515529633E0,4.323928356E0,3.854664862E-1
1.086266816E0,-1.661576033E0,4.247313976E0,4.046200812E-1
1.088280249E0,-1.948880196E0,4.060565948E0,4.165911078E-1
1.090293749E0,-2.231395960E0,3.847482204E0,4.381389022E-1
1.092307382E0,-2.530671120E0,3.746925592E0,4.405331016E-1
1.094321082E0,-2.674323320E0,3.545812607E0,4.118026793E-1
1.096334815E0,-2.942473888E0,3.366247654E0,3.375824392E-1
1.098348548E0,-3.229778051E0,3.179499865E0,2.705447972E-1
1.100362248E0,-3.371036053E0,3.102885485E0,2.250549644E-1
1.102375948E0,-3.643975019E0,2.947262287E0,1.125274822E-1
1.104389581E0,-3.892971992E0,2.817975283E0,-4.548983276E-2
1.106403281E0,-4.022258759E0,2.760514498E0,-1.364694983E-1
1.108417047E0,-4.295197964E0,2.647987127E0,-3.040636182E-1
1.110430847E0,-4.599261284E0,2.595314741E0,-4.477157295E-1
1.112444613E0,-4.776432514E0,2.585737944E0,-5.171475410E-1
1.114458346E0,-5.121496677E0,2.547430515E0,-6.488286853E-1
1.116472012E0,-5.449502468E0,2.530671120E0,-7.709329724E-1
1.118485712E0,-5.612308025E0,2.511517525E0,-8.331822157E-1
1.120499412E0,-5.906795025E0,2.451662540E0,-9.361328483E-1
1.122513112E0,-6.191704750E0,2.343923569E0,-1.005564690E0
1.124526778E0,-6.483797550E0,2.212242365E0,-1.017535686E0
1.126540478E0,-6.641814709E0,2.147598982E0,-1.024718285E0
1.128554211E0,-7.003339291E0,1.982398987E0,-1.007958889E0
1.130567977E0,-7.388805866E0,1.821987510E0,-9.816226959E-1
1.132581843E0,-7.609072208E0,1.728613615E0,-9.648633003E-1
1.134595843E0,-8.001721382E0,1.570596337E0,-8.930372596E-1
1.136609843E0,-8.432677269E0,1.391031146E0,-7.876923680E-1
1.138623876E0,-8.669703484E0,1.304839969E0,-7.182605267E-1
1.140637976E0,-9.117419243E0,1.154005170E0,-5.770025849E-1
1.142652142E0,-9.526827812E0,9.744400978E-1,-4.357447028E-1
1.144666375E0,-9.945813179E0,8.882488012E-1,-3.806780577E-1
1.146680641E0,-1.017326260E1,6.703764796E-1,-2.873041928E-1
1.148694841E0,-1.061379528E1,4.596867263E-1,-2.633621991E-1
1.150709041E0,-1.103517532E1,2.729389966E-1,-4.189853072E-1
1.152751474E0,-1.140867043E1,1.412578970E-1,-9.097966552E-1
1.154793940E0,-1.187075138E1,7.661445439E-2,-9.433154464E-1
1.156836406E0,-1.209820080E1,4.788403213E-2,-9.457096457E-1
1.158878939E0,-1.255549335E1,-8.140286058E-2,-1.007958889E0
1.160921505E0,-1.301757431E1,-2.920926213E-1,-1.156399369E0
1.162964138E0,-1.323544598E1,-4.046200812E-1,-1.268926859E0
1.165006804E0,-1.371668053E1,-6.799532771E-1,-1.522712231E0
1.167049437E0,-1.427213573E1,-1.041477680E0,-1.855506301E0
1.169092037E0,-1.489013863E1,-1.254561663E0,-2.310404539E0
1.171134670E0,-1.523729801E1,-1.738190413E0,-2.564189911E0
1.173177336E0,-1.600583649E1,-2.236184359E0,-3.112462282E0
1.175220102E0,-1.682225990E1,-2.628833532E0,-3.670311213E0
1.177262935E0,-1.721490860E1,-2.607285738E0,-3.624821424E0
1.179305801E0,-1.777036285E1,-2.631227732E0,-3.706224203E0
1.181348701E0,-1.824202156E1,-2.688688517E0,-4.304774761E0
1.183391634E0,-1.840482712E1,-2.640804529E0,-4.259284973E0
1.185434534E0,-1.851735497E1,-3.114856482E0,-5.032911301E0
1.187477434E0,-1.842876816E1,-4.326322556E0,-7.953837395E0
1.189520334E0,-1.832581902E1,-4.977844715E0,-9.395146370E0
1.191563200E0,-1.790683365E1,-6.886023521E0,-1.054196930E1
1.193606033E0,-1.762910652E1,-7.465420246E0,-1.069280434E1
1.195648733E0,-1.696351814E1,-7.958625793E0,-1.099207973E1
1.197691399E0,-1.657565689E1,-8.624214172E0,-1.150683308E1
1.199749499E0,-1.575923443E1,-9.136572838E0,-1.175343513E1
1.201807632E0,-1.491408062E1,-9.502885818E0,-1.175343513E1
1.203865732E0,-1.396807194E1,-9.658509254E0,-1.114770222E1
1.205923832E0,-1.344374180E1,-9.694421768E0,-1.064252567E1
1.207981898E0,-1.227776527E1,-9.778219223E0,-9.450213432E0
1.210039964E0,-1.095855999E1,-9.991303444E0,-8.205228806E0
1.212098030E0,-1.024030018E1,-1.015171432E1,-7.568370819E0
1.214127830E0,-8.686463356E0,-1.062097836E1,-6.208464146E0
1.216157596E0,-6.919542313E0,-1.126741219E1,-4.747702122E0
1.218187329E0,-4.824316502E0,-1.163372517E1,-4.012681961E0
1.220216962E0,-3.612850428E0,-1.244775391E1,-2.664746523E0
1.222246562E0,-8.643068075E-1,-1.328093624E1,-1.482010841E0
1.224276128E0,2.353500366E0,-1.409735870E1,-3.830722570E-1
1.226305694E0,4.146757126E0,-1.445888329E1,1.436520964E-1
1.228335227E0,8.109460831E0,-1.495717621E1,1.204283476E0
1.230364760E0,1.261055946E1,-1.505533886E1,2.425326347E0
1.232394260E0,1.505533886E1,-1.489732170E1,3.143586874E0
1.235366260E0,2.295859909E1,-1.333360863E1,5.904400826E0
1.237546407E0,2.869540596E1,-1.127938366E1,8.183680534E0
1.239560407E0,3.178392601E1,-9.811738014E0,9.399934769E0
1.241575407E0,3.769550705E1,-6.270713329E0,1.172949314E1
1.243590907E0,4.334582520E1,-2.303221941E0,1.385554409E1
1.245606240E0,4.601087189E1,-2.513911724E-1,1.480634212E1
1.247621490E0,5.097883987E1,3.761290789E0,1.657805061E1
1.249636890E0,5.535813141E1,7.479785442E0,1.820850182E1
1.251652223E0,5.728067780E1,9.148544312E0,1.896507072E1
1.253667508E0,6.166925049E1,1.298884392E1,2.076790428E1
1.255685258E0,6.254313278E1,1.384836197E1,2.137124252E1
1.257702813E0,6.307703781E1,1.449958515E1,2.205359077E1
1.259720213E0,6.317759705E1,1.521575069E1,2.347335243E1
1.261737485E0,6.216724396E1,1.514153004E1,2.504903603E1
1.263754568E0,6.041947556E1,1.438945103E1,2.664836311E1
1.265771491E0,5.932532501E1,1.384596729E1,2.740253639E1
1.267788348E0,5.682099152E1,1.251718616E1,2.882229805E1
1.269805148E0,5.402935028E1,1.104714584E1,3.002897644E1
1.271821898E0,5.253746414E1,1.025466537E1,3.052936363E1
1.273838486E0,4.942979050E1,8.624214172E0,3.129790306E1
1.275854874E0,4.618085861E1,7.012916088E0,3.172406960E1
1.277871137E0,4.452407074E1,6.241982937E0,3.180068398E1
1.279887237E0,4.122935104E1,4.821922302E0,3.177913666E1
1.281903332E0,3.803069687E1,3.629609823E0,3.155168724E1
1.283919332E0,3.511455917E1,3.138798475E0,3.125001907E1
1.285935332E0,3.379984283E1,2.343923569E0,3.109200096E1
1.287951290E0,3.149901581E1,1.850717902E0,3.073047638E1
1.289967210E0,2.959801865E1,1.632845521E0,3.031149101E1
1.291983056E0,2.880314445E1,1.601720929E0,3.006010056E1
1.293998870E0,2.745999718E1,1.671152830E0,2.947112656E1
1.296014655E0,2.647119141E1,1.920149803E0,2.880793190E1
1.298030448E0,2.610009003E1,2.099714994E0,2.847753334E1
1.300046248E0,2.551829910E1,2.516305923E0,2.778560829E1
1.302062081E0,2.510649681E1,2.987963676E0,2.708650208E1
1.304077847E0,2.495087433E1,3.217807055E0,2.671779442E1
1.306093647E0,2.461808014E1,3.679888010E0,2.593010139E1
1.308109447E0,2.428738022E1,4.065354347E0,2.504185295E1
1.310125213E0,2.391149139E1,4.235342979E0,2.455343628E1
1.312141013E0,2.370798302E1,4.527435303E0,2.345898628E1
1.314156813E0,2.293705177E1,4.819528103E0,2.162502861E1
1.316171846E0,2.266171837E1,4.876988888E0,2.097141075E1
1.318186812E0,2.236962509E1,4.929960728E0,2.031539917E1
1.320201712E0,2.173995018E1,4.994604111E0,1.900098419E1
1.322216545E0,2.106717873E1,5.025728703E0,1.769614410E1
1.324231378E0,2.071762657E1,5.030517101E0,1.704491997E1
1.326246178E0,1.999936485E1,5.030517101E0,1.572571564E1
1.328260911E0,1.930265236E1,5.001786709E0,1.441099930E1
1.330275577E0,1.899858856E1,5.008969307E0,1.377653599E1
1.332290177E0,1.842158699E1,4.980238914E0,1.261295414E1
1.334304777E0,1.784218979E1,4.992209911E0,1.154753399E1
1.336319377E0,1.755967331E1,4.999392509E0,1.103996372E1
1.338333943E0,1.699464226E1,5.004180908E0,1.013974380E1
1.340348543E0,1.648467636E1,5.016151905E0,9.285013199E0
1.342363076E0,1.600344276E1,5.013757706E0,8.511686325E0
1.344377609E0,1.575205135E1,5.023334503E0,8.171710014E0
1.346392109E0,1.528278828E1,5.025728703E0,7.570765018E0
1.348406542E0,1.479915905E1,5.013757706E0,7.044040680E0
1.350420942E0,1.457619953E1,4.994604111E0,6.811803341E0
1.352435342E0,1.410693550E1,4.939537525E0,6.392817974E0
1.354449742E0,1.366161442E1,4.876988888E0,6.036081791E0
1.356464042E0,1.343895340E1,4.843470097E0,5.885247231E0
1.358478242E0,1.304630470E1,4.781220913E0,5.629067421E0
1.360493008E0,1.270632744E1,4.726154327E0,5.384859085E0
1.362507008E0,1.253633976E1,4.711789131E0,5.279513836E0
1.364520974E0,1.222748756E1,4.639962673E0,5.042488098E0
1.366534874E0,1.194497108E1,4.541800499E0,4.759673119E0
1.368548707E0,1.165048504E1,4.429273129E0,4.498704910E0
1.370562473E0,1.152119827E1,4.355052948E0,4.386177540E0
1.372576206E0,1.123389339E1,4.161122322E0,4.170699596E0
1.374589939E0,1.095137787E1,3.936067581E0,4.000710964E0
1.376603705E0,1.082927322E1,3.818751812E0,3.931279182E0
1.378617505E0,1.057788277E1,3.586514235E0,3.821146011E0
1.380631338E0,1.035761547E1,3.368641853E0,3.761290789E0
1.382645204E0,1.026663589E1,3.282450438E0,3.756502390E0
1.384659004E0,1.008707142E1,3.157952070E0,3.821146011E0
1.386672804E0,9.909899712E0,3.086126089E0,3.983951569E0
1.388686604E0,9.816526413E0,3.064578056E0,4.074931145E0
1.390700404E0,9.629778862E0,3.057395458E0,4.252102375E0
1.392714204E0,9.438241959E0,3.086126089E0,4.393360138E0
1.394727970E0,9.263465881E0,3.110068083E0,4.525041103E0
1.396770070E0,9.110237122E0,3.160346270E0,4.635174274E0
1.398812236E0,8.928277016E0,3.201047659E0,4.692635536E0
1.400854402E0,8.818143845E0,3.213018656E0,4.704606533E0
1.402896535E0,8.578723907E0,3.224989653E0,4.680664539E0
1.404938601E0,8.293813705E0,3.162740469E0,4.632780075E0
1.406980601E0,8.138191223E0,3.110068083E0,4.560954094E0
1.409022601E0,7.829339027E0,2.954444885E0,4.297592163E0
1.411064534E0,7.522881031E0,2.827552319E0,4.024652958E0
1.413106367E0,7.372046471E0,2.767697096E0,3.904942989E0
1.415148133E0,7.089530468E0,2.655169725E0,3.648763418E0
1.417189933E0,6.871658325E0,2.533065319E0,3.359065056E0
1.419231733E0,6.658574104E0,2.444479942E0,3.028665066E0
1.421272866E0,6.584353924E0,2.415749550E0,2.841917515E0
1.423314666E0,6.459855556E0,2.382230759E0,2.422932148E0
1.425356499E0,6.359299183E0,2.387019157E0,1.944091797E0
1.427398299E0,6.289866924E0,2.408566952E0,1.723825216E0
1.429440165E0,6.162974358E0,2.497152328E0,1.261744261E0
1.431482065E0,6.057629585E0,2.595314741E0,8.164227605E-1
1.433523965E0,5.997774601E0,2.647987127E0,6.009446383E-1
1.435565865E0,5.791872978E0,2.784456491E0,3.830722719E-2
1.437607765E0,5.708076000E0,2.820369720E0,-1.340752989E-1
1.439649598E0,5.621884823E0,2.844311714E0,-2.920926213E-1
1.441691398E0,5.454290867E0,2.858676910E0,-5.578489900E-1
1.443745164E0,5.296273232E0,2.829946518E0,-7.637503147E-1
1.445798997E0,5.107131481E0,2.753331900E0,-9.002198577E-1
1.447852830E0,4.908412933E0,2.664746523E0,-1.024718285E0
1.449906663E0,4.805162907E0,2.624045134E0,-1.048660398E0
1.451960496E0,4.587290287E0,2.513911724E0,-1.098938584E0
1.454014329E0,4.367023945E0,2.454056740E0,-1.098938584E0
1.456068262E0,4.252102375E0,2.432508945E0,-1.084573388E0
1.458093962E0,3.998316765E0,2.372653961E0,-1.015141487E0
1.460119662E0,3.749319792E0,2.303221941E0,-8.978256583E-1
1.462145395E0,3.610456228E0,2.269703150E0,-8.212111592E-1
1.464171195E0,3.344699860E0,2.190694571E0,-6.105214357E-1
1.466197095E0,3.057395458E0,2.123656988E0,-3.734954596E-1
1.468223028E0,2.906560898E0,2.090138197E0,-2.442085743E-1
1.470249028E0,2.609679937E0,2.011129379E0,1.675941236E-2
1.472275094E0,2.312798738E0,1.915361404E0,2.585737705E-1
1.474301227E0,1.970427990E0,1.838746905E0,4.955997467E-1
1.476327393E0,1.802833915E0,1.810016513E0,6.177040339E-1
1.479259393E0,1.312022567E0,1.675941229E0,9.528923035E-1
1.481404407E0,1.151610970E0,1.640028119E0,1.070208192E0
1.483418407E0,8.355764151E-1,1.577778935E0,1.292868972E0
1.485432407E0,5.171475410E-1,1.513135433E0,1.491587639E0
1.487446907E0,3.495534360E-1,1.472434044E0,1.572990537E0
1.489461573E0,2.873042040E-2,1.398213744E0,1.632845521E0
1.491476073E0,-2.657563984E-1,1.359906554E0,1.699883223E0
1.493490473E0,-5.626373887E-1,1.328781962E0,1.814804912E0
1.495504806E0,-7.134721279E-1,1.302445769E0,1.843535304E0
1.497519091E0,-1.192312479E0,1.161187768E0,1.829170108E0
1.499536341E0,-1.350329757E0,1.103726983E0,1.781286120E0
1.501553341E0,-1.515529633E0,1.060631394E0,1.731007814E0
1.503570041E0,-1.893813491E0,9.552865028E-1,1.592144132E0
1.505586495E0,-2.274491549E0,8.571242094E-1,1.391031146E0
1.507602745E0,-2.444479942E0,8.020575643E-1,1.233013868E0
1.509618821E0,-2.767697096E0,6.823474765E-1,8.667010069E-1
1.511634821E0,-3.090914488E0,5.722141862E-1,5.267243981E-1
1.513650687E0,-3.213018656E0,4.955997467E-1,2.274491638E-1
1.515666437E0,-3.387795448E0,1.005564705E-1,-1.369483352E0
1.517682084E0,-3.579331636E0,1.388636976E-1,-1.738190413E0
1.519697528E0,-3.763684988E0,3.639186621E-1,-1.558625340E0
1.521712791E0,-3.864241600E0,5.075707436E-1,-1.450886250E0
1.523727941E0,-4.070142746E0,7.757213712E-1,-1.276109457E0
1.525743036E0,-4.261679173E0,1.024718285E0,-1.142034173E0
1.527758081E0,-4.357447147E0,1.125274777E0,-1.108515382E0
1.529773081E0,-4.498704910E0,1.261744261E0,-1.074996591E0
1.531787997E0,-4.613626480E0,1.302445769E0,-1.142034173E0
1.533802877E0,-4.651933670E0,1.273715258E0,-1.209071875E0
1.535817723E0,-4.687847137E0,1.189918280E0,-1.343147159E0
1.537832537E0,-4.675876141E0,1.086967587E0,-1.458068848E0
1.539847322E0,-4.639962673E0,1.039083481E0,-1.498770237E0
1.541862080E0,-4.577713490E0,9.313444495E-1,-1.501164436E0
1.543876813E0,-4.572925091E0,8.092401624E-1,-1.443703651E0
1.545891613E0,-4.759673119E0,6.631938815E-1,-1.441309452E0
1.547906379E0,-4.838681698E0,6.057330370E-1,-1.450886250E0
1.549921112E0,-5.011363506E0,5.195417404E-1,-1.403002143E0
1.551935845E0,-5.267542839E0,4.165911078E-1,-1.345541358E0
1.553950578E0,-5.406406879E0,3.615244627E-1,-1.312022567E0
1.555965311E0,-5.794267178E0,1.819593310E-1,-1.235408068E0
1.557980044E0,-6.304232121E0,-4.309562966E-2,-1.118092179E0
1.559993877E0,-6.593930721E0,-1.699883193E-1,-1.034295082E0
1.562007677E0,-7.216423035E0,-3.998316824E-1,-8.140285611E-1
1.564021477E0,-7.812579632E0,-6.057330370E-1,-5.602431893E-1
1.566035243E0,-8.083124161E0,-6.847416759E-1,-4.620809257E-1
1.568049009E0,-8.518868446E0,-8.068459630E-1,-3.351882398E-1
1.570062742E0,-8.846874237E0,-8.643068075E-1,-2.777273953E-1
1.572076442E0,-9.086295128E0,-8.858546019E-1,-2.011129409E-1
1.574090075E0,-9.194033623E0,-8.930372596E-1,-1.388636976E-1
1.576103741E0,-9.450213432E0,-8.690952063E-1,6.943184882E-2
1.578117407E0,-9.641749382E0,-8.140285611E-1,3.327940404E-1
1.580131107E0,-9.713575363E0,-7.781155705E-1,4.764461517E-1
1.582144873E0,-9.845256805E0,-7.134721279E-1,7.398083210E-1
1.584158673E0,-9.996091843E0,-6.224924326E-1,9.289502501E-1
1.586172473E0,-1.005834103E1,-5.746083856E-1,9.864110947E-1
1.588186273E0,-1.017326260E1,-5.315127969E-1,1.051054597E0
1.590200039E0,-1.033367348E1,-5.171475410E-1,9.672574997E-1
1.592213805E0,-1.040789413E1,-5.267243981E-1,8.930372596E-1
1.594227505E0,-1.058745956E1,-6.344634295E-1,7.565677166E-1
1.596241138E0,-1.080772591E1,-7.996633649E-1,6.775590777E-1
1.598254738E0,-1.107587624E1,-9.624691010E-1,5.698199868E-1
1.600268204E0,-1.121234608E1,-1.046266198E0,5.171475410E-1
1.602281537E0,-1.145894814E1,-1.235408068E0,3.878606856E-1
1.604295737E0,-1.168160915E1,-1.412579060E0,2.106897533E-1
1.606308870E0,-1.177977180E1,-1.493981838E0,8.140286058E-2
1.608321936E0,-1.194975948E1,-1.640028119E0,-2.394201756E-1
1.610334969E0,-1.212214279E1,-1.769315004E0,-5.770025849E-1
1.612348002E0,-1.223945808E1,-1.841141105E0,-7.326257229E-1
1.614360968E0,-1.253394508E1,-2.011129379E0,-9.911994934E-1
1.616373901E0,-1.291941166E1,-2.233790159E0,-1.182735682E0
1.618386767E0,-1.331924343E1,-2.466027737E0,-1.405396342E0
1.620400467E0,-1.353472137E1,-2.585737944E0,-1.551442742E0
1.622414167E0,-1.395610142E1,-2.782062292E0,-1.948880196E0
1.624427833E0,-1.435832691E1,-2.853888512E0,-2.449268341E0
1.626441533E0,-1.454507446E1,-2.997540474E0,-2.743755102E0
1.628455199E0,-1.486619663E1,-3.141192675E0,-3.428496838E0
1.630468899E0,-1.508167553E1,-3.323152065E0,-4.175487995E0
1.632482599E0,-1.514631844E1,-3.438073635E0,-4.551377296E0
1.634496365E0,-1.518223190E1,-3.665522814E0,-5.291484833E0
1.636510065E0,-1.514392471E1,-3.916913986E0,-5.930737019E0
1.638523731E0,-1.510561752E1,-4.058171749E0,-6.239588737E0
1.641457731E0,-1.484943771E1,-4.484339714E0,-7.070376873E0
1.643452407E0,-1.458577633E1,-4.616020679E0,-7.328950882E0
1.645467407E0,-1.441339397E1,-4.855441093E0,-7.774271965E0
1.647481407E0,-1.395370674E1,-5.099948883E0,-8.092700958E0
1.649495907E0,-1.334318542E1,-5.437531471E0,-8.324938774E0
1.651510573E0,-1.301278591E1,-5.655403614E0,-8.403946877E0
1.653525073E0,-1.236874485E1,-6.213252544E0,-8.581118584E0
1.655539273E0,-1.172470474E1,-6.828562737E0,-8.648156166E0
1.657553606E0,-1.140627575E1,-7.139808655E0,-8.607454300E0
1.659567606E0,-1.071674633E1,-7.779060364E0,-8.329727173E0
1.661581606E0,-9.835680008E0,-8.408735275E0,-7.786243439E0
1.663595494E0,-9.325715065E0,-8.715193748E0,-7.412747860E0
1.665609294E0,-8.135796547E0,-9.251494408E0,-6.474220753E0
1.667623021E0,-6.754342079E0,-9.620202065E0,-4.910807133E0
1.669636604E0,-5.478232861E0,-9.775824547E0,-2.762908697E0
1.671650065E0,-4.896441936E0,-9.912294388E0,-1.611297727E0
1.673663422E0,-3.718195200E0,-9.936236382E0,2.394201756E-1
1.675676688E0,-2.310404539E0,-1.009664822E1,1.556231141E0
1.677689938E0,-1.438915253E0,-1.026663589E1,2.166752577E0
1.679703232E0,2.027888775E0,-1.089391708E1,4.187458992E0
1.681716398E0,3.462015629E0,-1.104235744E1,4.922778130E0
1.683729503E0,4.987421513E0,-1.109981823E1,5.641038418E0
1.685742503E0,8.221987724E0,-1.096334839E1,6.883629322E0
1.687773169E0,1.148528481E1,-1.048690319E1,7.752724171E0
1.689803032E0,1.475366974E1,-9.737517357E0,8.317755699E0
1.691832162E0,1.635778427E1,-9.306561470E0,8.511686325E0
1.693860620E0,1.926434517E1,-8.676886559E0,8.557176590E0
1.695888460E0,2.265692902E1,-7.577947617E0,8.664915085E0
1.697915729E0,2.439272499E1,-6.816591740E0,8.846874237E0
1.699942469E0,2.796996117E1,-5.054459095E0,9.299378395E0
1.701968719E0,3.198264503E1,-2.930502892E0,9.711181641E0
1.703994512E0,3.628053665E1,-5.602431893E-1,9.888352394E0
1.706019878E0,3.850235367E1,6.847416759E-1,9.873987198E0
1.708045178E0,4.300584793E1,3.294421434E0,9.644144058E0
1.710070378E0,4.733965302E1,5.940313816E0,9.265859604E0
1.712095478E0,4.937711716E1,7.240365028E0,9.045593262E0
1.714120544E0,5.306179428E1,9.665691376E0,8.538022995E0
1.716145610E0,5.607160568E1,1.172949314E1,7.961019993E0
1.718170643E0,5.727349472E1,1.258901215E1,7.666532993E0
1.720195743E0,5.903323364E1,1.385793877E1,7.139808655E0
1.722249176E0,5.994302750E1,1.451634407E1,6.735188484E0
1.724302676E0,5.995978928E1,1.460732365E1,6.553229332E0
1.726356176E0,5.910745239E1,1.417397308E1,6.641814709E0
1.728409676E0,5.753446198E1,1.334318542E1,7.170933247E0
1.730463209E0,5.652889633E1,1.281885529E1,7.570765018E0
1.732516809E0,5.419694519E1,1.154274559E1,8.468590736E0
1.734570442E0,5.163724518E1,1.017565632E1,9.713575363E0
1.736624108E0,5.036831665E1,9.531616211E0,1.048211479E1
1.738677741E0,4.793101883E1,8.312967300E0,1.222269917E1
1.740731341E0,4.555357742E1,7.192481041E0,1.403750420E1
1.742786007E0,4.438520813E1,6.634632111E0,1.500506020E1
1.744840740E0,4.213196564E1,5.636250019E0,1.697548866E1
1.746895573E0,4.001309586E1,4.778826714E0,1.884775352E1
1.748938073E0,3.814083099E1,4.448426723E0,1.973600388E1
1.750980606E0,3.729328156E1,3.993528366E0,2.145264626E1
1.753023139E0,3.579690552E1,3.811569214E0,2.309746170E1
1.755065705E0,3.457586288E1,3.780444384E0,2.456061935E1
1.757108305E0,3.406320572E1,3.809175014E0,2.518790054E1
1.759150905E0,3.318214035E1,3.912125587E0,2.624853134E1
1.761193505E0,3.243993759E1,4.094084740E0,2.702185822E1
1.763236005E0,3.210474777E1,4.189853191E0,2.729000854E1
1.765278471E0,3.152535248E1,4.367023945E0,2.752942848E1
1.767320837E0,3.095792580E1,4.558559895E0,2.741211319E1
1.769363270E0,3.066104507E1,4.651933670E0,2.720381737E1
1.771405736E0,3.000982285E1,4.809951305E0,2.652146912E1
1.773448269E0,2.931310844E1,4.901230335E0,2.547280884E1
1.775490802E0,2.894200706E1,4.932354927E0,2.481679916E1
1.777533335E0,2.814713287E1,4.977844715E0,2.333927727E1
1.779575801E0,2.729240227E1,4.980238914E0,2.165375900E1
1.781618267E0,2.638500023E1,4.944325924E0,1.984613609E1
1.783632400E0,2.590855408E1,4.917989731E0,1.891479111E1
1.785646466E0,2.496763229E1,4.881777287E0,1.704970932E1
1.787660532E0,2.403120041E1,4.826710701E0,1.527560520E1
1.789674598E0,2.357151413E1,4.797980309E0,1.442057610E1
1.791688664E0,2.267847633E1,4.745307922E0,1.277097130E1
1.793702664E0,2.181895828E1,4.728548527E0,1.123389339E1
1.795716664E0,2.139039612E1,4.716577530E0,1.051802731E1
1.797730664E0,2.057876205E1,4.726154327E0,9.203610420E0
1.799744697E0,1.977191544E1,4.726154327E0,8.044816971E0
1.801758730E0,1.898422432E1,4.704606533E0,7.032069683E0
1.803771663E0,1.862269974E1,4.692635536E0,6.574777126E0
1.805784563E0,1.791880417E1,4.673481941E0,5.755959988E0
1.807797429E0,1.726039886E1,4.680664539E0,5.073612690E0
1.809810295E0,1.693957520E1,4.704606533E0,4.781220913E0
1.811823128E0,1.634102440E1,4.699818134E0,4.283226967E0
1.813836028E0,1.579275322E1,4.699818134E0,3.888183594E0
1.815848928E0,1.554375553E1,4.683058739E0,3.739742994E0
1.817861794E0,1.508167553E1,4.620809078E0,3.533841610E0
1.819874727E0,1.467675591E1,4.558559895E0,3.385401249E0
1.821887693E0,1.448761368E1,4.532223701E0,3.335123062E0
1.823900793E0,1.408778191E1,4.469974518E0,3.260902643E0
1.825913959E0,1.369992161E1,4.383783340E0,3.193865061E0
1.827927259E0,1.351077938E1,4.321534157E0,3.169923067E0
1.829940592E0,1.316362000E1,4.199429989E0,3.138798475E0
1.831953958E0,1.278773022E1,4.101267338E0,3.145981073E0
1.833967324E0,1.242620564E1,4.041412354E0,3.179499865E0
1.835980724E0,1.224664116E1,3.909731388E0,3.205836058E0
1.837994090E0,1.185638618E1,3.775655985E0,3.272873640E0
1.840007523E0,1.148767948E1,3.610456228E0,3.380612850E0
1.842020923E0,1.129853725E1,3.512293816E0,3.438073635E0
1.844034223E0,1.088673401E1,3.265691042E0,3.543418407E0
1.846047489E0,1.045817184E1,2.997540474E0,3.639186621E0
1.848061755E0,1.023311710E1,2.863465309E0,3.687070608E0
1.850075021E0,9.773430824E0,2.609679937E0,3.749319792E0
1.852088321E0,9.316138268E0,2.339135170E0,3.756502390E0
1.854101654E0,9.100660324E0,2.224213362E0,3.734954596E0
1.856115020E0,8.643367767E0,2.006340981E0,3.653551817E0
1.858128386E0,8.171710014E0,1.841141105E0,3.493140221E0
1.860141786E0,7.764695168E0,1.754949808E0,3.397372246E0
1.862155186E0,7.374440670E0,1.577778935E0,3.064578056E0
1.864170219E0,7.187692642E0,1.513135433E0,2.942473888E0
1.866185285E0,6.835745335E0,1.419761658E0,2.698265314E0
1.868200351E0,6.672939301E0,1.405396342E0,2.580949545E0
1.870215384E0,6.361693382E0,1.383848548E0,2.319981337E0
1.872230417E0,6.117484570E0,1.383848548E0,2.073378563E0
1.874245417E0,5.995380402E0,1.376665950E0,1.956062794E0
1.876260417E0,5.765536785E0,1.410184860E0,1.721431017E0
1.878275383E0,5.554847240E0,1.458068848E0,1.491587639E0
1.880290283E0,5.456685066E0,1.486799240E0,1.386242747E0
1.882305149E0,5.293879032E0,1.561019540E0,1.192312479E0
1.884348349E0,5.040093899E0,1.702277422E0,8.571242094E-1
1.886391582E0,4.944325924E0,1.733402014E0,7.326257229E-1
1.888434782E0,4.774038315E0,1.788468719E0,4.884171486E-1
1.890477915E0,4.601655483E0,1.838746905E0,2.561795712E-1
1.892521015E0,4.515464306E0,1.867477298E0,1.484405100E-1
1.894564081E0,4.345476151E0,1.922544003E0,-5.267243832E-2
1.896607114E0,4.163516521E0,1.975216389E0,-2.442085743E-1
1.898650214E0,4.065354347E0,2.003946781E0,-3.232172430E-1
1.900693280E0,3.871424198E0,2.063801765E0,-4.740519226E-1
1.902736346E0,3.689464808E0,2.106897593E0,-6.009446383E-1
1.904779446E0,3.600879431E0,2.149993181E0,-6.727706790E-1
1.906822612E0,3.390189648E0,2.224213362E0,-8.188169599E-1
1.908864778E0,3.184288263E0,2.296039343E0,-9.504981041E-1
1.910907944E0,2.997540474E0,2.377442360E0,-1.106121182E0
1.912951044E0,2.911349297E0,2.396595955E0,-1.187524080E0
1.914994110E0,2.736572504E0,2.422932148E0,-1.323993564E0
1.917037143E0,2.571372509E0,2.434903145E0,-1.410184860E0
1.919080176E0,2.480392933E0,2.439691544E0,-1.441309452E0
1.921123176E0,2.315192938E0,2.439691544E0,-1.505952835E0
1.923166176E0,2.164358377E0,2.427720547E0,-1.549048543E0
1.925207576E0,2.094926596E0,2.413355350E0,-1.551442742E0
1.927248909E0,1.951274395E0,2.396595955E0,-1.541865945E0
1.929290209E0,1.831564307E0,2.403778553E0,-1.522712231E0
1.931343709E0,1.776497602E0,2.466027737E0,-1.491587639E0
1.933397209E0,1.745373011E0,2.501940727E0,-1.450886250E0
1.935450709E0,1.673547029E0,2.588132143E0,-1.335964561E0
1.937504142E0,1.687912226E0,2.710236311E0,-1.233013868E0
1.939557608E0,1.750161409E0,2.770091295E0,-1.082179189E0
1.941611041E0,1.783680320E0,2.865859509E0,-1.015141487E0
1.943664474E0,1.843535304E0,2.954444885E0,-8.523358107E-1
1.945689574E0,1.922544003E0,3.045424461E0,-6.464344859E-1
1.947714607E0,1.968033791E0,3.088520288E0,-5.410895944E-1
1.949739640E0,2.025494576E0,3.196259260E0,-3.208230138E-1
1.951764673E0,2.087743998E0,3.363853455E0,-9.816227108E-2
1.953789739E0,2.123656988E0,3.438073635E0,1.675941236E-2
1.955814805E0,2.200271368E0,3.586514235E0,2.489969730E-1
1.957839871E0,2.245761156E0,3.727771997E0,4.644751251E-1
1.959864937E0,2.274491549E0,3.797203779E0,5.722141862E-1
1.961890003E0,2.272097349E0,3.878606796E0,7.541735172E-1
1.963915069E0,2.250549555E0,3.936067581E0,9.002198577E-1
1.966848069E0,2.229001760E0,3.988739967E0,9.911994934E-1
1.968985407E0,2.173935175E0,4.024652958E0,1.036689281E0
1.970998407E0,2.121262789E0,4.077325344E0,1.034295082E0
1.973011407E0,2.075772762E0,4.106055737E0,1.015141487E0
1.975024407E0,1.991975784E0,4.122815132E0,9.576807022E-1
1.977037740E0,1.922544003E0,4.139574528E0,8.810662031E-1
1.979051240E0,1.905784607E0,4.151545525E0,8.331822157E-1
1.981064640E0,1.805228114E0,4.161122322E0,7.374141216E-1
1.983078140E0,1.699883223E0,4.194641590E0,6.200982332E-1
1.985091568E0,1.618480325E0,4.185064793E0,5.123591423E-1
1.987107818E0,1.565807939E0,4.175487995E0,4.548983276E-1
1.989123929E0,1.474828243E0,4.163516521E0,3.040636182E-1
1.991139729E0,1.403002143E0,4.149151325E0,1.460463107E-1
1.993155456E0,1.376665950E0,4.151545525E0,7.661445439E-2
1.995171039E0,1.319205165E0,4.165910721E0,-6.703764945E-2
1.997186500E0,1.273715258E0,4.189853191E0,-2.226607651E-1
1.999201857E0,1.242590666E0,4.204218388E0,-2.944868207E-1
2.001217123E0,1.192312479E0,4.244919777E0,-4.070142806E-1
2.003232310E0,1.163581967E0,4.290409565E0,-4.740519226E-1
2.005247368E0,1.134851575E0,4.309563160E0,-5.099649429E-1
2.007262256E0,1.058237195E0,4.311957359E0,-5.650315881E-1
2.009276992E0,1.041477680E0,4.307168961E0,-6.224924326E-1
2.011291592E0,9.792284966E-1,4.304774761E0,-6.584054828E-1
2.013306211E0,8.307880163E-1,4.058171749E0,-6.631938815E-1
2.015320801E0,4.884171486E-1,3.584120035E0,-5.937620401E-1
2.017335322E0,3.208230138E-1,3.509899616E0,-6.081272364E-1
2.019349822E0,2.801215947E-1,3.562572241E0,-6.129156351E-1
2.021364302E0,2.705447972E-1,3.761290789E0,-6.057330370E-1
2.023378802E0,4.141969085E-1,4.082113743E0,-5.458779931E-1
2.025393283E0,5.219359994E-1,4.252102375E0,-4.979939461E-1
2.027407747E0,7.110779285E-1,4.546588898E0,-4.046200812E-1
2.029422195E0,9.457096457E-1,4.881777287E0,-4.022258818E-1
2.031436628E0,1.106121182E0,5.066430092E0,-4.453215301E-1
2.033451094E0,1.434126854E0,5.365705490E0,-5.674257874E-1
2.035465560E0,1.762132406E0,5.636250019E0,-6.655880809E-1
2.037480026E0,2.075772762E0,5.772719383E0,-7.230489254E-1
2.039494459E0,2.224213362E0,6.036081791E0,-7.852981687E-1
2.041508925E0,2.518700123E0,6.287472725E0,-8.116343617E-1
2.043523391E0,2.748543501E0,6.481403351E0,-7.757213712E-1
2.045537891E0,2.940079689E0,6.613084316E0,-6.991068721E-1
2.047553491E0,3.031059265E0,6.653785706E0,-6.416460276E-1
2.049567157E0,3.179499865E0,6.687304497E0,-5.123591423E-1
2.051580890E0,3.239354849E0,6.687304497E0,-4.644751251E-1
2.053594623E0,3.380612850E0,6.701669693E0,-3.950432837E-1
2.055608389E0,3.505111217E0,6.684910297E0,-2.777273953E-1
2.057622155E0,3.550601006E0,6.684910297E0,-2.035071403E-1
2.059635921E0,3.620033026E0,6.665756702E0,-8.140286058E-2
2.061649687E0,3.629609823E0,6.653785706E0,1.197100803E-2
2.063663487E0,3.648763418E0,6.644208908E0,6.224924326E-2
2.065677320E0,3.687070608E0,6.617872715E0,1.268926859E-1
2.067691253E0,3.739742994E0,6.589142323E0,1.699883193E-1
2.069705286E0,3.837905407E0,6.581959724E0,2.011129409E-1
2.071719352E0,3.878606796E0,6.577171326E0,2.059013397E-1
2.073733385E0,3.964797974E0,6.577171326E0,2.082955539E-1
2.075747418E0,4.058171749E0,6.617872715E0,2.154781520E-1
2.077761451E0,4.108449936E0,6.639420509E0,1.987187415E-1
2.079775517E0,4.223371983E0,6.692092896E0,1.580173075E-1
2.081789550E0,4.331110954E0,6.728005886E0,1.197100878E-1
2.083803550E0,4.388571739E0,6.751947880E0,1.101332754E-1
2.085817550E0,4.517858505E0,6.838139534E0,1.053448766E-1
2.087831450E0,4.623203278E0,6.948272705E0,1.125274822E-1
2.089845283E0,4.649539471E0,7.000945091E0,1.340752989E-1
2.091859916E0,4.707000732E0,7.096713066E0,1.867477298E-1
2.093873749E0,4.754884720E0,7.178115845E0,2.585737705E-1
2.095887582E0,4.783615112E0,7.233182430E0,2.992752194E-1
2.097901415E0,4.800374508E0,7.254730225E0,3.184288144E-1
2.099915281E0,4.812345505E0,7.257124424E0,3.447650373E-1
2.101929147E0,4.862623692E0,7.233182430E0,3.854664862E-1
2.103943013E0,4.869806290E0,7.209240437E0,4.118026793E-1
2.105956879E0,4.934749126E0,7.137414455E0,5.434837937E-1
2.107969845E0,4.953902721E0,7.125443459E0,6.153098345E-1
2.109984745E0,4.958691120E0,7.118260860E0,7.110779285E-1
2.111999578E0,5.004180908E0,7.125443459E0,9.121908545E-1
2.114014344E0,4.985027313E0,7.139808655E0,1.165976286E0
2.116029044E0,4.963479519E0,7.156568050E0,1.455674648E0
2.118043744E0,4.939537525E0,7.197269440E0,1.611297727E0
2.120058444E0,4.872200489E0,7.228394032E0,1.920149803E0
2.122073110E0,4.836287498E0,7.242759228E0,2.205059767E0
2.124087710E0,4.833893299E0,7.259518623E0,2.331952572E0
2.126102276E0,4.805162907E0,7.276278019E0,2.559401512E0
2.129038276E0,4.766855717E0,7.276278019E0,2.750937700E0
2.131057407E0,4.745307922E0,7.259518623E0,2.904166698E0
2.133072407E0,4.750096321E0,7.261912823E0,3.007117271E0
2.135086407E0,4.754884720E0,7.266701221E0,3.055001259E0
2.137099907E0,4.774038315E0,7.295432091E0,3.105279684E0
2.139114240E0,4.776432514E0,7.328950882E0,3.143586874E0
2.141128240E0,4.752490520E0,7.376834869E0,3.150769472E0
2.143142240E0,4.733336926E0,7.393594265E0,3.145981073E0
2.145156573E0,4.695029736E0,7.427113056E0,3.136404276E0
2.147170858E0,4.656722069E0,7.458237648E0,3.129221678E0
2.149184983E0,4.651933670E0,7.465420246E0,3.100491285E0
2.151199205E0,4.623203278E0,7.489362240E0,3.016694069E0
2.153213505E0,4.592078686E0,7.508515835E0,2.937685490E0
2.155227868E0,4.565742493E0,7.530063629E0,2.885013103E0
2.157242201E0,4.491522312E0,7.565976620E0,2.772485495E0
2.159256508E0,4.426878929E0,7.592312813E0,2.652775526E0
2.161270722E0,4.400542736E0,7.601889610E0,2.590526342E0
2.163284855E0,4.333505154E0,7.611466408E0,2.473210335E0
2.165298855E0,4.261679173E0,7.630620003E0,2.375048161E0
2.167312855E0,4.242525578E0,7.623437405E0,2.284068346E0
2.169326688E0,4.223371983E0,7.623437405E0,2.236184359E0
2.171340477E0,4.220977783E0,7.635408401E0,2.109291792E0
2.173354227E0,4.261679173E0,7.647379398E0,1.939303398E0
2.175390512E0,4.288015366E0,7.678503990E0,1.814804912E0
2.177425830E0,4.295197964E0,7.671321392E0,1.754949808E0
2.179460221E0,4.319139957E0,7.647379398E0,1.611297727E0
2.181493804E0,4.338293552E0,7.668927193E0,1.458068848E0
2.183526604E0,4.340687752E0,7.666532993E0,1.374271750E0
2.185558680E0,4.367023945E0,7.649773598E0,1.194706678E0
2.187590087E0,4.362235546E0,7.637802601E0,1.015141487E0
2.189620908E0,4.345476151E0,7.606678009E0,8.140285611E-1
2.191651183E0,4.326322556E0,7.582736015E0,7.278373241E-1
2.193680949E0,4.249708176E0,7.544428825E0,5.602431893E-1
2.195710682E0,4.163516521E0,7.489362240E0,4.022258818E-1
2.197740448E0,4.118026733E0,7.465420246E0,3.303998411E-1
2.199770148E0,4.017470360E0,7.386411667E0,1.939303428E-1
2.201799881E0,3.926490784E0,7.288249016E0,5.746084079E-2
2.203829647E0,3.869029999E0,7.225999832E0,2.394201700E-3
2.205859347E0,3.739742994E0,7.079953671E0,-1.077390760E-1
2.207889147E0,3.605667830E0,6.895600319E0,-1.939303428E-1
2.209947280E0,3.459621429E0,6.716034889E0,-2.920926213E-1
2.212005480E0,3.282450438E0,6.474220753E0,-3.687070608E-1
2.214063646E0,3.076549292E0,6.206069946E0,-3.902548850E-1
2.216121812E0,2.973598480E0,6.081571579E0,-3.926490843E-1
2.218180012E0,2.717418909E0,5.772719383E0,-3.854664862E-1
2.220238278E0,2.473210335E0,5.442319870E0,-3.615244627E-1
2.222296611E0,2.331952572E0,5.279513836E0,-3.351882398E-1
2.224355011E0,2.013523579E0,4.939537525E0,-2.849099934E-1
2.226413511E0,1.678335428E0,4.572925091E0,-2.585737705E-1
2.228472011E0,1.312022567E0,4.209006786E0,-1.939303428E-1
2.230531444E0,1.110909581E0,4.034229755E0,-1.532289088E-1
2.232590977E0,6.847416759E-1,3.675099611E0,-9.816227108E-2
2.234650610E0,2.681505978E-1,3.323152065E0,-4.548983276E-2
2.236694510E0,4.070143029E-2,3.143586874E0,-2.394201607E-2
2.238738410E0,-4.118026793E-1,2.813186884E0,5.267243832E-2
2.240782310E0,-8.882488012E-1,2.511517525E0,1.292868853E-1
2.242826143E0,-1.122880578E0,2.372653961E0,1.891419291E-1
2.244870009E0,-1.659181833E0,2.111685991E0,3.303998411E-1
2.246913909E0,-2.209848166E0,1.826775908E0,4.477157295E-1
2.248957842E0,-2.482787132E0,1.692700624E0,5.147533417E-1
2.251001642E0,-3.040636063E0,1.410184860E0,6.655880809E-1
2.253045375E0,-3.610456228E0,1.130063176E0,8.236053586E-1
2.255089041E0,-3.895366192E0,1.012747288E0,9.145850539E-1
2.257132741E0,-4.513070107E0,7.685387731E-1,1.072602391E0
2.259176474E0,-5.157409668E0,4.908113480E-1,1.209071875E0
2.261220240E0,-5.849334240E0,3.615244627E-1,1.316810966E0
2.263264006E0,-6.201281548E0,3.830722719E-2,1.331176162E0
2.265307739E0,-7.015310287E0,-3.064578176E-1,1.343147159E0
2.267351505E0,-7.939472198E0,-6.727706790E-1,1.247379065E0
2.269395205E0,-8.456619263E0,-8.738836050E-1,1.182735682E0
2.271410605E0,-9.567529678E0,-1.333570361E0,9.576807022E-1
2.273425938E0,-1.082209110E1,-1.814804912E0,6.368576288E-1
2.275441271E0,-1.148049641E1,-2.051830769E0,4.381389022E-1
2.277456537E0,-1.295053673E1,-2.578555346E0,-2.394201607E-2
2.279471803E0,-1.449240208E1,-3.105279684E0,-5.889736414E-1
2.281487036E0,-1.531151867E1,-3.363853455E0,-9.026140571E-1
2.283502236E0,-1.706167984E1,-3.895366192E0,-1.604115129E0
2.285517369E0,-1.898182869E1,-4.407725334E0,-2.377442360E0
2.287532469E0,-2.104802513E1,-4.647145271E0,-3.205836058E0
2.289547602E0,-2.319322968E1,-5.490203857E0,-4.139574528E0
2.291563868E0,-2.426822662E1,-5.775113583E0,-4.613626480E0
2.293578101E0,-2.631556892E1,-6.275501728E0,-5.569212437E0
2.295592267E0,-2.725409508E1,-6.490980148E0,-6.038475990E0
2.297606400E0,-2.899707413E1,-6.943484306E0,-6.984185696E0
2.299620500E0,-3.047908592E1,-7.331345081E0,-7.786243439E0
2.301634600E0,-3.109679031E1,-7.534852028E0,-8.119037628E0
2.303648766E0,-3.201855850E1,-7.870040417E0,-8.612242699E0
2.305662899E0,-3.250697327E1,-8.121431351E0,-8.832509041E0
2.307677032E0,-3.260034943E1,-8.243535995E0,-8.825326920E0
2.309691132E0,-3.250936890E1,-8.442254066E0,-8.566753387E0
2.311705332E0,-3.212629700E1,-8.741529465E0,-8.308178902E0
2.313719565E0,-3.147267914E1,-8.928277016E0,-8.114249229E0
2.315733865E0,-3.107763672E1,-9.359233856E0,-7.982567787E0
2.317748165E0,-3.014629173E1,-9.806949615E0,-7.644985199E0
2.319762465E0,-2.898749733E1,-1.042225933E1,-7.419930458E0
2.321776731E0,-2.833866882E1,-1.082927322E1,-7.343316078E0
2.323790997E0,-2.692369652E1,-1.177498341E1,-7.144597054E0
2.325805297E0,-2.535309982E1,-1.288349819E1,-6.876446724E0
2.327819597E0,-2.449328232E1,-1.348683739E1,-6.735188484E0
2.329833963E0,-2.252524757E1,-1.472972775E1,-6.400000572E0
2.331848296E0,-2.032018852E1,-1.602499008E1,-5.983409405E0
2.333862596E0,-1.912308693E1,-1.666663742E1,-5.755959988E0
2.335876896E0,-1.642961121E1,-1.796908188E1,-5.313032627E0
2.337891296E0,-1.326178265E1,-1.930265236E1,-4.838681698E0
2.339905662E0,-9.538799286E0,-2.062425232E1,-4.304774761E0
2.341919995E0,-7.474997044E0,-2.126350403E1,-3.991134167E0
2.343934395E0,-2.865859509E0,-2.246539307E1,-3.284844637E0
2.345948861E0,2.387019157E0,-2.339673805E1,-2.597708941E0
2.347963361E0,5.222053051E0,-2.374868584E1,-2.257732153E0
2.349977827E0,1.454507446E1,-2.393782806E1,-1.292868972E0
2.351990327E0,1.792119789E1,-2.369840622E1,-1.010353088E0
2.354004827E0,2.141912651E1,-2.323632622E1,-7.302315235E-1
2.356019327E0,2.891088295E1,-2.165375900E1,-1.723825186E-1
2.358033827E0,3.667557907E1,-1.902013779E1,5.793967843E-1
2.360048360E0,4.100429535E1,-1.722927475E1,1.091755986E0
2.362062926E0,4.972667313E1,-1.271829891E1,2.233790159E0
2.364077459E0,5.809231186E1,-7.075165272E0,3.229778051E0
2.366092025E0,6.585461426E1,-3.983951569E0,4.000710964E0
2.368106558E0,6.946985626E1,2.418143749E0,4.369418144E0
2.370121091E0,7.542693329E1,8.674491882E0,5.250783443E0
2.373054091E0,7.769902802E1,1.425058746E1,6.371270180E0
2.375045407E0,7.826884460E1,1.861072922E1,7.604283810E0
2.377059407E0,7.841249847E1,2.135927200E1,9.138967514E0
2.379074407E0,7.843643951E1,2.210147476E1,1.005594635E1
2.381089907E0,7.845320129E1,2.255637360E1,1.217960358E1
2.383104907E0,7.845320129E1,2.202246666E1,1.474648666E1
2.385119907E0,7.845320129E1,2.148855972E1,1.783740044E1
2.387134907E0,7.845080566E1,1.998500061E1,1.940081406E1
2.389149907E0,7.727046204E1,1.800978279E1,2.253482437E1
2.391164764E0,7.375577545E1,1.568980217E1,2.549675179E1
2.393179514E0,7.150732422E1,1.443972969E1,2.697876167E1
2.395194180E0,6.649386597E1,1.187075138E1,2.988532257E1
2.397208880E0,6.125265884E1,9.462183952E0,3.263386536E1
2.399223607E0,5.866931534E1,8.420706749E0,3.389561081E1
2.401238357E0,5.369386292E1,6.766313076E0,3.611772919E1
2.403253126E0,4.924304199E1,5.664980412E0,3.771466064E1
2.405267840E0,4.722951889E1,5.327397823E0,3.825096512E1
2.407282640E0,4.361637115E1,5.028122902E0,3.893809891E1
2.409297390E0,4.062840652E1,4.987421513E0,3.902429199E1
2.411312095E0,3.829884720E1,4.994604111E0,3.859093857E1
2.413326706E0,3.732440567E1,5.013757706E0,3.823420334E1
2.415341284E0,3.561494827E1,5.078401089E0,3.718554306E1
2.417355834E0,3.430501938E1,5.162198067E0,3.569395447E1
2.419388024E0,3.319650269E1,5.296273232E0,3.384533310E1
2.421419524E0,3.267935562E1,5.387253284E0,3.279188538E1
2.423450263E0,3.171209908E1,5.557241440E0,3.039768219E1
2.425480346E0,3.080230331E1,5.691316605E0,2.769702339E1
2.427509786E0,3.034261513E1,5.736806393E0,2.627007866E1
2.429538670E0,2.941605949E1,5.770325184E0,2.334406471E1
2.431567040E0,2.846795654E1,5.688922405E0,2.032497597E1
2.433594932E0,2.795320320E1,5.624279022E0,1.880705261E1
2.435622380E0,2.688538933E1,5.430348873E0,1.582866573E1
2.437649446E0,2.573856544E1,5.183745861E0,1.297208405E1
2.439676512E0,2.459653282E1,5.040093899E0,1.030015469E1
2.441703545E0,2.404317284E1,4.783615112E0,9.062353134E0
2.443730645E0,2.298014641E1,4.532223701E0,6.866869926E0
2.445757745E0,2.195782280E1,4.295197964E0,4.996998310E0
2.447784878E0,2.147179985E1,4.182670593E0,4.173093796E0
2.449812011E0,2.051411819E1,3.998316765E0,2.789244890E0
2.451839177E0,1.958037949E1,3.876212597E0,1.695094824E0
2.453894610E0,1.863945961E1,3.749319792E0,8.738836050E-1
2.455950176E0,1.770811462E1,3.603273630E0,2.968810201E-1
2.458005742E0,1.725321579E1,3.521870613E0,9.097966552E-2
2.460061308E0,1.636496735E1,3.359065056E0,-1.867477298E-1
2.462116874E0,1.551741982E1,3.210624456E0,-3.591302633E-1
2.464172507E0,1.471775627E1,3.069366693E0,-4.429273009E-1
2.466228207E0,1.431762505E1,2.983175278E0,-4.860229492E-1
2.468283873E0,1.355626965E1,2.810792685E0,-5.315127969E-1
2.470339573E0,1.278533649E1,2.585737944E0,-5.889736414E-1
2.472395306E0,1.199764442E1,2.346317768E0,-6.799532771E-1
2.474451106E0,1.160020638E1,2.205059767E0,-7.134721279E-1
2.476506939E0,1.076702404E1,1.889025092E0,-7.493851185E-1
2.478562805E0,9.917082787E0,1.728613615E0,-7.709329724E-1
2.480606371E0,9.507674217E0,1.367089152E0,-8.092401624E-1
2.482649904E0,8.691251755E0,9.911994934E-1,-8.571242094E-1
2.484693437E0,8.286631584E0,7.948749661E-1,-8.882488012E-1
2.486736970E0,7.525275230E0,4.333505034E-1,-9.289502501E-1
2.488780570E0,6.797437668E0,7.661445439E-2,-1.015141487E0
2.490824203E0,6.079177380E0,-2.442085743E-1,-1.146822572E0
2.492867836E0,5.741594791E0,-3.974374831E-1,-1.237802267E0
2.494911402E0,5.085583687E0,-6.895300746E-1,-1.431732655E0
2.496954902E0,4.446032524E0,-9.720458984E-1,-1.644816518E0
2.498998368E0,4.137180328E0,-1.122880578E0,-1.754949808E0
2.501041868E0,3.524264812E0,-1.438915253E0,-1.948880196E0
2.503085401E0,2.892195702E0,-1.795651317E0,-2.087743998E0
2.505128867E0,2.564189911E0,-1.972822189E0,-2.133233786E0
2.507172333E0,1.903390408E0,-2.353500366E0,-2.169146776E0
2.509215733E0,1.252167463E0,-2.712630510E0,-2.149993181E0
2.511259133E0,9.409212470E-1,-2.863465309E0,-2.133233786E0
2.513302533E0,3.687070608E-1,-3.098097086E0,-2.133233786E0
2.515317699E0,-1.364694983E-1,-3.232172251E0,-2.176329374E0
2.517332765E0,-6.584054828E-1,-3.318363667E0,-2.233790159E0
2.519347831E0,-9.074024558E-1,-3.354276657E0,-2.262520552E0
2.521362931E0,-1.355118155E0,-3.423708439E0,-2.355894566E0
2.523378031E0,-1.766920805E0,-3.500322819E0,-2.444479942E0
2.525393131E0,-1.972822189E0,-3.552995205E0,-2.492363930E0
2.527408197E0,-2.410961151E0,-3.660734415E0,-2.650381327E0
2.529423263E0,-2.832340717E0,-3.797203779E0,-2.827552319E0
2.531438363E0,-3.040636063E0,-3.859453201E0,-2.952050686E0
2.533453496E0,-3.627215624E0,-4.153939724E0,-3.466804028E0
2.535468529E0,-3.821146011E0,-4.280832767E0,-3.663128614E0
2.537483529E0,-4.230554581E0,-4.419696331E0,-3.861847401E0
2.539498495E0,-4.429273129E0,-4.769249916E0,-4.271255970E0
2.541513461E0,-4.826710701E0,-5.217264652E0,-4.721365929E0
2.543528394E0,-5.286696434E0,-5.739200592E0,-5.171774864E0
2.545543394E0,-5.564424038E0,-6.050446987E0,-5.360917091E0
2.547558427E0,-6.251559734E0,-6.732794285E0,-5.746383190E0
2.549573427E0,-7.185298443E0,-7.525275230E0,-6.160580158E0
2.551588427E0,-7.776666164E0,-7.958625793E0,-6.366481781E0
2.553603427E0,-9.141361237E0,-8.870816231E0,-6.809409142E0
2.555618427E0,-1.073589993E1,-9.751882553E0,-7.302614689E0
2.557633493E0,-1.160260105E1,-1.016129112E1,-7.580341816E0
2.559648559E0,-1.355387497E1,-1.097531986E1,-8.241141319E0
2.561663592E0,-1.563952446E1,-1.178216553E1,-9.091083527E0
2.563678525E0,-1.794514084E1,-1.257464695E1,-1.010143661E1
2.565693458E0,-1.918294334E1,-1.294814205E1,-1.064492035E1
2.567708391E0,-2.178783417E1,-1.365443134E1,-1.168639755E1
2.569723324E0,-2.443103218E1,-1.423382854E1,-1.270872211E1
2.571738224E0,-2.572420120E1,-1.446846008E1,-1.318756199E1
2.573753090E0,-2.816389275E1,-1.478479385E1,-1.407581139E1
2.575767856E0,-3.039528847E1,-1.492126369E1,-1.481113052E1
2.577782556E0,-3.142240143E1,-1.492605209E1,-1.508885765E1
2.579797156E0,-3.335452271E1,-1.473930454E1,-1.543601704E1
2.581811722E0,-3.519117355E1,-1.436550903E1,-1.545517063E1
2.583826255E0,-3.613688278E1,-1.415003109E1,-1.532109547E1
2.585840688E0,-3.806421661E1,-1.363048935E1,-1.463605404E1
2.587855088E0,-4.000830841E1,-1.317080307E1,-1.362809563E1
2.589869421E0,-4.097077560E1,-1.299602604E1,-1.300081444E1
2.591883687E0,-4.277360916E1,-1.276857662E1,-1.144697762E1
2.593897887E0,-4.536682892E1,-1.292659378E1,-8.432677269E0
2.595912953E0,-4.625268555E1,-1.316601467E1,-7.305008888E0
2.597928086E0,-4.715530014E1,-1.349402046E1,-6.165368557E0
2.599943219E0,-4.890546036E1,-1.437269211E1,-4.005499363E0
2.601958319E0,-5.052154541E1,-1.538334465E1,-2.164358377E0
2.603973419E0,-5.122304916E1,-1.587654972E1,-1.386242747E0
2.605988485E0,-5.229565048E1,-1.685338402E1,-9.816227108E-2
2.608003485E0,-5.278646088E1,-1.781106567E1,7.493851185E-1
2.610018418E0,-5.285350037E1,-1.833778954E1,1.058237195E0
2.612033284E0,-5.264520264E1,-1.953249550E1,1.417367458E0
2.614048150E0,-5.187427139E1,-2.082775879E1,1.486799240E0
2.616981150E0,-5.048323822E1,-2.220681953E1,1.290474772E0
2.618979407E0,-4.838113022E1,-2.354039001E1,7.781155705E-1
2.620991407E0,-4.550808716E1,-2.485271072E1,-1.125274822E-1
2.623006407E0,-4.385818481E1,-2.550872231E1,-6.512228847E-1
2.625020907E0,-4.020702744E1,-2.686623573E1,-1.740584612E0
2.627035573E0,-3.636433411E1,-2.831712151E1,-2.992752075E0
2.629050323E0,-3.441784668E1,-2.908566093E1,-3.629609823E0
2.631064723E0,-3.038331795E1,-3.079272652E1,-4.786009312E0
2.633079056E0,-2.600911140E1,-3.289004517E1,-5.650615215E0
2.635093198E0,-2.095704651E1,-3.547608185E1,-6.055235386E0
2.637107448E0,-1.811752319E1,-3.688866425E1,-6.024110794E0
2.639121670E0,-1.182765579E1,-3.975691605E1,-5.463867664E0
2.641135970E0,-4.680664539E0,-4.229955673E1,-4.431667328E0
2.643150424E0,-7.517793179E-1,-4.334582520E1,-3.861847401E0
2.645164924E0,8.035240173E0,-4.481616211E1,-2.894589901E0
2.647179385E0,1.827314568E1,-4.525669861E1,-2.360682964E0
2.649193956E0,2.392825127E1,-4.497896957E1,-2.221819162E0
2.651208556E0,3.612969971E1,-4.319498825E1,-1.936909199E0
2.653223118E0,4.908742142E1,-3.934032440E1,-1.393425345E0
2.655237706E0,6.221273422E1,-3.319650269E1,-4.908113480E-1
2.657252150E0,6.881863403E1,-2.896116066E1,1.244984865E-1
2.659266518E0,7.599435425E1,-1.874001503E1,1.731007814E0
2.661280818E0,7.784268188E1,-1.309897709E1,2.597708941E0
2.663317246E0,7.830476379E1,3.940855980E0,5.504569054E0
2.665352700E0,7.838376617E1,9.016862869E0,6.555623531E0
2.667387178E0,7.844123077E1,1.738010788E1,8.633790970E0
2.669420844E0,7.845320129E1,2.284607124E1,1.112136650E1
2.671453764E0,7.845320129E1,2.439751434E1,1.259140587E1
2.673485956E0,7.845320129E1,2.533155251E1,1.613033485E1
2.675517474E0,7.845320129E1,2.419400597E1,2.028188133E1
2.677548366E0,7.845320129E1,2.317647171E1,2.238638496E1
2.679578641E0,7.845320129E1,2.064101219E1,2.645203781E1
2.681608374E0,7.845320129E1,1.759079933E1,2.971294022E1
2.683638074E0,7.844123077E1,1.593161678E1,3.094834900E1
2.685667807E0,7.782352448E1,1.250521469E1,3.275597000E1
2.687697473E0,7.310186005E1,9.308955193E0,3.388603592E1
2.689727139E0,6.660639191E1,6.708852291E0,3.451601028E1
2.691756805E0,6.343377686E1,5.717652798E0,3.472909164E1
2.693786471E0,5.779782486E1,4.376600742E0,3.504512787E1
2.695816137E0,5.327248383E1,3.897760391E0,3.515286636E1
2.697874003E0,4.970033646E1,4.177882195E0,3.504751968E1
2.699931903E0,4.698052216E1,4.793191910E0,3.461896133E1
2.701989769E0,4.592467880E1,5.121496677E0,3.429304886E1
2.704047569E0,4.428944016E1,5.782296181E0,3.351732635E1
2.706105335E0,4.301781845E1,6.359299183E0,3.255964661E1
2.708163101E0,4.192366791E1,6.586748123E0,3.134099770E1
2.710220801E0,4.136103058E1,6.921936512E0,3.061555481E1
2.712278434E0,4.012562180E1,7.096713066E0,2.888454628E1
2.714336067E0,3.876571655E1,7.175721645E0,2.675849533E1
2.716393700E0,3.728849411E1,7.137414455E0,2.428738022E1
2.718452166E0,3.654389954E1,7.077559471E0,2.295380974E1
2.720510699E0,3.496372604E1,6.933907509E0,2.018611336E1
2.722569265E0,3.413503265E1,6.835745335E0,1.879508209E1
2.724612298E0,3.236811066E1,6.586748123E0,1.609202766E1
2.726655331E0,3.048387337E1,6.301837921E0,1.361851883E1
2.728698397E0,2.952858734E1,6.151003361E0,1.251479149E1
2.730741430E0,2.763716888E1,5.856516838E0,1.055872917E1
2.732784430E0,2.576490211E1,5.538087845E0,8.849268913E0
2.734827430E0,2.396895218E1,5.159803867E0,7.415142059E0
2.736870430E0,2.310225105E1,4.985027313E0,6.797437668E0
2.738913330E0,2.146222305E1,4.666299343E0,5.720046997E0
2.740956196E0,2.000654793E1,4.443638325E0,4.826710701E0
2.742998996E0,1.932898903E1,4.364629745E0,4.426878929E0
2.745041829E0,1.802175522E1,4.228160381E0,3.756502390E0
2.747084629E0,1.681028938E1,4.141968727E0,3.215412855E0
2.749127429E0,1.622131538E1,4.096478939E0,2.990357876E0
2.751170229E0,1.509843445E1,4.058171749E0,2.607285738E0
2.753213062E0,1.404229259E1,4.024652958E0,2.291250944E0
2.755255895E0,1.354190445E1,4.000710964E0,2.145204782E0
2.757298728E0,1.256267548E1,3.971980572E0,1.929726601E0
2.759313261E0,1.167442703E1,3.960009575E0,1.786074519E0
2.761327794E0,1.089870548E1,3.950432777E0,1.702277422E0
2.763342327E0,1.053478718E1,3.945644379E0,1.673547029E0
2.765356827E0,9.895534515E0,3.955221176E0,1.608903527E0
2.767371327E0,9.344868660E0,3.945644379E0,1.513135433E0
2.769385827E0,9.086295128E0,3.943250179E0,1.446097851E0
2.771400327E0,8.612242699E0,3.926490784E0,1.283292055E0
2.773414893E0,8.159738541E0,3.888183594E0,1.084573388E0
2.775429459E0,7.949048996E0,3.845088005E0,9.816226959E-1
2.777443992E0,7.384017467E0,3.701435804E0,6.464344859E-1
2.779457692E0,7.216423035E0,3.636792421E0,5.339069963E-1
2.781471392E0,7.044040680E0,3.564966440E0,4.213795066E-1
2.783485125E0,6.756736279E0,3.454833031E0,2.035071403E-1
2.785498891E0,6.498162746E0,3.325546265E0,-7.182605099E-3
2.787512624E0,6.249165535E0,3.198653460E0,-1.891419291E-1
2.789526390E0,6.134243965E0,3.122039080E0,-2.705447972E-1
2.791540190E0,5.894824028E0,2.961627483E0,-3.711012602E-1
2.793553990E0,5.681739807E0,2.801215887E0,-4.333505034E-1
2.795567823E0,5.569212437E0,2.743755102E0,-4.453215301E-1
2.797581689E0,5.356128693E0,2.624045134E0,-4.261679053E-1
2.799595689E0,5.140650272E0,2.501940727E0,-3.519476354E-1
2.801609789E0,5.044882298E0,2.451662540E0,-2.968810201E-1
2.803623989E0,4.821922302E0,2.346317768E0,-1.556231081E-1
2.805638155E0,4.584896088E0,2.209848166E0,3.591302410E-2
2.807652321E0,4.479551315E0,2.145204782E0,1.508347094E-1
2.809666521E0,4.276044369E0,2.015917778E0,4.237737060E-1
2.811680687E0,4.077325344E0,1.891419291E0,7.254431248E-1
2.813694887E0,3.890577793E0,1.838746905E0,1.027112484E0
2.815709120E0,3.811569214E0,1.723825216E0,1.173158884E0
2.817723420E0,3.622427225E0,1.632845521E0,1.462857246E0
2.819737720E0,3.414131641E0,1.553836942E0,1.764526606E0
2.821751953E0,3.306392431E0,1.517923832E0,1.910573006E0
2.823766953E0,3.059789658E0,1.434126854E0,2.207453966E0
2.825781219E0,2.789244890E0,1.405396342E0,2.475604534E0
2.827795485E0,2.662352324E0,1.374271750E0,2.602497339E0
2.829809751E0,2.401384354E0,1.343147159E0,2.832340717E0
2.831824017E0,2.190694571E0,1.319205165E0,3.043030262E0
2.833838250E0,2.104503393E0,1.312022567E0,3.138798475E0
2.835852483E0,2.042253971E0,1.273715258E0,3.287238836E0
2.837866716E0,2.102109194E0,1.278503656E0,3.430891037E0
2.839880982E0,2.243366957E0,1.300051570E0,3.481169224E0
2.841895215E0,2.377442360E0,1.350329757E0,3.519476414E0
2.843909448E0,2.729389906E0,1.431732655E0,3.457227230E0
2.845923714E0,3.189076662E0,1.596932530E0,3.308786631E0
2.847938014E0,3.464409828E0,1.680729628E0,3.213018656E0
2.849952314E0,4.072536945E0,1.927332401E0,2.992752075E0
2.851966580E0,4.709394932E0,2.217030764E0,2.719813108E0
2.853980913E0,5.013757706E0,2.379836559E0,2.554613113E0
2.855995179E0,5.588366032E0,2.717418909E0,2.169146776E0
2.858009445E0,6.174945354E0,3.062183857E0,1.692700624E0
2.860944445E0,6.689698696E0,3.349488258E0,1.185129881E0
2.862926407E0,7.170933247E0,3.608062029E0,6.823474765E-1
2.864941407E0,7.678503990E0,3.861847401E0,1.795651317E-1
2.866955407E0,7.908347607E0,3.964797974E0,-4.788403213E-2
2.868969407E0,8.334515572E0,4.134786129E0,-4.477157295E-1
2.870983407E0,8.724770546E0,4.266467571E0,-8.092401624E-1
2.872997407E0,8.899546623E0,4.345476151E0,-9.528923035E-1
2.875011607E0,9.201216698E0,4.493916512E0,-1.156399369E0
2.877025940E0,9.445425034E0,4.625597477E0,-1.292868972E0
2.879040368E0,9.543587685E0,4.704606533E0,-1.331176162E0
2.881054743E0,9.656114578E0,4.836287498E0,-1.331176162E0
2.883069187E0,9.658509254E0,4.922778130E0,-1.223437071E0
2.885083687E0,9.553164482E0,4.939537525E0,-1.139639974E0
2.887098232E0,9.459790230E0,4.963479519E0,-9.409212470E-1
2.889112732E0,9.244312286E0,4.891354084E0,-7.182605267E-1
2.891127193E0,8.925883293E0,4.764461517E0,-5.195417404E-1
2.893141764E0,8.751106262E0,4.678270340E0,-4.285621047E-1
2.895156364E0,8.391976357E0,4.496310711E0,-2.346317619E-1
2.897171051E0,8.004115105E0,4.328716755E0,-3.830722719E-2
2.899185756E0,7.577947617E0,4.132391930E0,1.843535304E-1
2.901200367E0,7.362469673E0,4.050989151E0,2.729389966E-1
2.903214998E0,6.914753914E0,3.847482204E0,4.788403511E-1
2.905229598E0,6.696881294E0,3.754108191E0,5.817909837E-1
2.907270550E0,6.055235386E0,3.454833031E0,8.690952063E-1
2.909310368E0,5.820603371E0,3.356670856E0,9.648633003E-1
2.911349150E0,5.344157696E0,3.177105665E0,1.154005170E0
2.913386900E0,4.836287498E0,3.002328873E0,1.347935557E0
2.915423740E0,4.584896088E0,2.913743496E0,1.453280449E0
2.917459740E0,4.089296341E0,2.758120298E0,1.642422318E0
2.919494999E0,3.581725836E0,2.588132143E0,1.833958507E0
2.921529499E0,3.342305660E0,2.511517525E0,1.927332401E0
2.923563361E0,2.861071110E0,2.322375536E0,2.059013367E0
2.925596594E0,2.413355350E0,2.159569979E0,2.149993181E0
2.927629894E0,2.020706177E0,2.090138197E0,2.231395960E0
2.929663227E0,1.826775908E0,1.953668594E0,2.238578558E0
2.931696593E0,1.484405041E0,1.845929503E0,2.229001760E0
2.933730026E0,1.180341482E0,1.788468719E0,2.164358377E0
2.935763492E0,1.027112484E0,1.771709204E0,2.111685991E0
2.937796992E0,7.589619160E-1,1.747767210E0,1.989581585E0
2.939830592E0,5.243301988E-1,1.757344007E0,1.798045516E0
2.941892458E0,3.351882398E-1,1.788468719E0,1.572990537E0
2.943954391E0,1.436520964E-1,1.817199111E0,1.300051570E0
2.946016357E0,5.027823523E-2,1.833958507E0,1.154005170E0
2.948078357E0,-1.125274822E-1,1.896207690E0,8.595184088E-1
2.950140457E0,-2.729389966E-1,1.951274395E0,5.650315881E-1
2.952202623E0,-4.333505034E-1,2.001552582E0,2.968810201E-1
2.954264756E0,-5.315127969E-1,2.039859772E0,1.580173075E-1
2.956326889E0,-7.038952708E-1,2.114080191E0,-1.197100878E-1
2.958388922E0,-8.714894056E-1,2.159569979E0,-3.758896589E-1
2.960450955E0,-1.027112484E0,2.195482969E0,-6.248866320E-1
2.962512988E0,-1.108515382E0,2.226607561E0,-7.541735172E-1
2.964575021E0,-1.288080573E0,2.269703150E0,-1.010353088E0
2.966637121E0,-1.379060149E0,2.284068346E0,-1.144428372E0
2.968680787E0,-1.517923832E0,2.322375536E0,-1.429338455E0
2.970724420E0,-1.637633920E0,2.379836559E0,-1.707065821E0
2.972768020E0,-1.683123827E0,2.408566952E0,-1.850717902E0
2.974811686E0,-1.771709204E0,2.446874142E0,-2.145204782E0
2.976855352E0,-1.821987510E0,2.516305923E0,-2.401384354E0
2.978899018E0,-1.877054095E0,2.566584110E0,-2.633621931E0
2.980942684E0,-1.884236693E0,2.592920542E0,-2.746149302E0
2.982986350E0,-1.889025092E0,2.679111719E0,-2.901772499E0
2.985029950E0,-1.886630893E0,2.760514498E0,-2.995146275E0
2.987073550E0,-1.886630893E0,2.808398485E0,-3.019088268E0
2.989117150E0,-1.912967205E0,2.916137695E0,-3.023876667E0
2.991160750E0,-1.965639591E0,3.038241863E0,-3.028665066E0
2.993204383E0,-2.006340981E0,3.095702887E0,-3.031059265E0
2.995247983E0,-2.102109194E0,3.198653460E0,-3.023876667E0
2.997291516E0,-2.188300371E0,3.296815634E0,-3.007117271E0
2.999334949E0,-2.233790159E0,3.347094059E0,-2.995146275E0
3.001378249E0,-2.327163935E0,3.421314240E0,-2.959233284E0
3.003393282E0,-2.430114746E0,3.454833031E0,-2.896984100E0
3.005408248E0,-2.535459518E0,3.454833031E0,-2.801215887E0
3.007423181E0,-2.583343744E0,3.435679436E0,-2.746149302E0
3.009438114E0,-2.693476915E0,3.371036053E0,-2.619256735E0
3.011452947E0,-2.817975283E0,3.282450438E0,-2.461239338E0
3.013467713E0,-2.882618904E0,3.222595453E0,-2.384624958E0
3.015482479E0,-3.004723072E0,3.098097086E0,-2.221819162E0
3.017497245E0,-3.165134668E0,2.964021683E0,-2.051830769E0
3.019512045E0,-3.248931646E0,2.904166698E0,-1.965639591E0
3.021526845E0,-3.524264812E0,2.755726099E0,-1.702277422E0
3.023541645E0,-3.624821424E0,2.724601507E0,-1.611297727E0
3.025556411E0,-3.718195200E0,2.693476915E0,-1.520318031E0
3.027571111E0,-3.888183594E0,2.659958124E0,-1.343147159E0
3.029585777E0,-4.067748547E0,2.640804529E0,-1.168370485E0
3.031600443E0,-4.268861771E0,2.609679937E0,-9.959878922E-1
3.033615109E0,-4.364629745E0,2.607285738E0,-9.289502501E-1
3.035629775E0,-4.556165695E0,2.600103140E0,-8.164227605E-1
3.037644475E0,-4.690241337E0,2.571372509E0,-7.637503147E-1
3.039659175E0,-4.759673119E0,2.557007313E0,-7.422025204E-1
3.041673841E0,-4.874594688E0,2.537853718E0,-6.991068721E-1
3.043688541E0,-5.011363506E0,2.504334927E0,-6.631938815E-1
3.045703274E0,-5.078401089E0,2.494758129E0,-6.464344859E-1
3.047718007E0,-5.212476254E0,2.477998734E0,-6.296750307E-1
3.049732740E0,-5.346551895E0,2.458845139E0,-6.392518282E-1
3.051747440E0,-5.475838661E0,2.434903145E0,-6.560112834E-1
3.053762106E0,-5.528511047E0,2.394201756E0,-6.655880809E-1
3.055776739E0,-5.617096424E0,2.327163935E0,-7.038952708E-1
3.057791405E0,-5.688922405E0,2.260126352E0,-7.469909191E-1
3.059806105E0,-5.727229595E0,2.233790159E0,-7.709329724E-1
3.061820838E0,-5.794267178E0,2.171540976E0,-8.212111592E-1
3.063835538E0,-5.897218227E0,2.111685991E0,-8.762778044E-1
3.065850171E0,-5.947496414E0,2.085349798E0,-9.145850539E-1
3.067864704E0,-6.009745598E0,2.030282974E0,-9.935936928E-1
3.069879170E0,-6.043264389E0,1.929726601E0,-1.086967587E0
3.071893670E0,-6.055235386E0,1.869871497E0,-1.125274777E0
3.073908136E0,-6.062417984E0,1.740584612E0,-1.223437071E0
3.075922569E0,-6.071994781E0,1.587355733E0,-1.280897856E0
3.077936935E0,-6.069600582E0,1.510741234E0,-1.292868972E0
3.079951301E0,-6.043264389E0,1.331176162E0,-1.290474772E0
3.081965601E0,-6.031293392E0,1.034295082E0,-1.247379065E0
3.083980701E0,-6.031293392E0,9.169792533E-1,-1.228225470E0
3.085995801E0,-6.048052788E0,7.924807668E-1,-1.211466074E0
3.088010901E0,-6.136638165E0,5.051765442E-1,-1.163581967E0
3.090025967E0,-6.294655323E0,1.604115069E-1,-1.101332784E0
3.092040967E0,-6.416759968E0,-3.112462163E-2,-1.055842996E0
3.094055967E0,-6.687304497E0,-4.764461517E-1,-9.816226959E-1
3.096070867E0,-6.996156693E0,-1.022324085E0,-9.504981041E-1
3.098085700E0,-7.182904243E0,-1.328781962E0,-9.289502501E-1
3.100100466E0,-7.642591000E0,-1.984793186E0,-8.595184088E-1
3.102115166E0,-8.298602104E0,-2.705447912E0,-7.661445141E-1
3.105048166E0,-9.040804863E0,-3.440467834E0,-7.302315235E-1
3.107032407E0,-9.941024780E0,-4.218583584E0,-8.307880163E-1
3.109047407E0,-1.102799225E1,-4.946720123E0,-1.074996591E0
3.111061407E0,-1.164090824E1,-5.291484833E0,-1.235408068E0
3.113075407E0,-1.307982349E1,-5.976226807E0,-1.659181833E0
3.115089407E0,-1.463366032E1,-6.596324921E0,-2.209848166E0
3.117103657E0,-1.545277596E1,-6.869264126E0,-2.516305923E0
3.119118257E0,-1.712871742E1,-7.369652271E0,-3.210624456E0
3.121132923E0,-1.885014915E1,-7.747935772E0,-3.938461781E0
3.123147494E0,-2.066016579E1,-7.872434616E0,-4.695029736E0
3.125161994E0,-2.156277847E1,-8.001721382E0,-5.054459095E0
3.127176438E0,-2.329378700E1,-8.004115105E0,-5.636250019E0
3.129190838E0,-2.486468315E1,-7.910741806E0,-5.976226807E0
3.131205201E0,-2.559012604E1,-7.819762230E0,-6.016928196E0
3.133219534E0,-2.696439743E1,-7.575553417E0,-5.815814972E0
3.135233918E0,-2.823093033E1,-7.324162483E0,-5.289090633E0
3.137248346E0,-2.882229805E1,-7.237970829E0,-4.925172329E0
3.139262746E0,-3.002658081E1,-7.261912823E0,-4.036623955E0
3.141277121E0,-3.128114319E1,-7.587524414E0,-3.059789658E0
3.143291532E0,-3.248063660E1,-8.320150375E0,-2.075772762E0
3.145305865E0,-3.303369904E1,-8.868422508E0,-1.558625340E0
3.147320128E0,-3.406081009E1,-1.014692593E1,-4.525041282E-1
3.149334328E0,-3.453995132E1,-1.082927322E1,1.436520964E-1
3.151366851E0,-3.585197449E1,-1.222030449E1,1.352723956E0
3.153398532E0,-3.623504639E1,-1.353472137E1,2.501940727E0
3.155429401E0,-3.679050064E1,-1.483267784E1,3.466804028E0
3.157459567E0,-3.696288300E1,-1.625483322E1,4.134786129E0
3.159489047E0,-3.690302658E1,-1.703773689E1,4.326322556E0
3.161517970E0,-3.638348770E1,-1.876635170E1,4.412513733E0
3.163546340E0,-3.534679794E1,-2.087324905E1,4.201824188E0
3.165574161E0,-3.463571930E1,-2.212302208E1,4.027047157E0
3.167601471E0,-3.271047974E1,-2.479285622E1,3.493140221E0
3.169628337E0,-3.022051239E1,-2.761083221E1,2.952050686E0
3.171655237E0,-2.873850060E1,-2.906171799E1,2.717418909E0
3.173682137E0,-2.526690865E1,-3.197306824E1,2.391807556E0
3.175709003E0,-2.112463951E1,-3.478176498E1,2.267308950E0
3.177735869E0,-1.879986954E1,-3.614885330E1,2.267308950E0
3.179762635E0,-1.355626965E1,-3.881120682E1,2.384624958E0
3.181789401E0,-7.513304234E0,-4.110964203E1,2.760514498E0
3.183816167E0,-5.171475410E-1,-4.303697205E1,3.380612850E0
3.185872267E0,7.407959461E0,-4.412633514E1,4.240131378E0
3.187928433E0,1.623089218E1,-4.398507690E1,5.420772076E0
3.189984566E0,2.093310356E1,-4.335061264E1,6.146214962E0
3.192040699E0,3.090046501E1,-4.092768097E1,7.882011414E0
3.194096865E0,4.132751083E1,-3.696767044E1,1.000088024E1
3.196152998E0,4.656632614E1,-3.445854950E1,1.109024143E1
3.198209098E0,5.631341934E1,-2.872174072E1,1.292420006E1
3.200265198E0,6.617064667E1,-2.215893555E1,1.410454178E1
3.202321331E0,7.410054016E1,-1.868494797E1,1.522532749E1
3.204377431E0,7.736623383E1,-7.834127426E0,1.656847382E1
3.206433531E0,7.791210938E1,-4.189853191E0,1.748545265E1
3.208489697E0,7.832391357E1,2.789244890E0,2.004006767E1
3.210545897E0,7.839095306E1,6.064812183E0,2.148616409E1
3.212589263E0,7.844123077E1,1.190187550E1,2.444300461E1
3.214632629E0,7.845320129E1,1.637693787E1,2.745520782E1
3.216676029E0,7.845320129E1,1.802175522E1,2.867625237E1
3.218719462E0,7.845320129E1,2.016456604E1,3.043838310E1
3.220762962E0,7.845320129E1,2.099774742E1,3.119016266E1
3.222806462E0,7.845320129E1,2.102887154E1,3.109200096E1
3.224849962E0,7.845320129E1,2.024357414E1,2.949985695E1
3.226893462E0,7.845320129E1,1.857960320E1,2.710086632E1
3.228936962E0,7.720821381E1,1.748784828E1,2.463962746E1
3.230980428E0,7.526412201E1,1.489492702E1,2.353560066E1
3.233023894E0,7.020726776E1,1.202158642E1,2.196021652E1
3.235067360E0,6.474848938E1,9.184456825E0,2.127068710E1
3.237110860E0,6.209781265E1,7.934683800E0,2.115097618E1
3.239154326E0,5.717054367E1,5.925948620E0,2.144306946E1
3.241197859E0,5.279603958E1,4.685452938E0,2.249891281E1
3.243241359E0,5.078251266E1,4.271255970E0,2.320520210E1
3.245284892E0,4.699009705E1,3.610456228E0,2.468511772E1
3.247299092E0,4.344638062E1,2.964021683E0,2.605938911E1
3.249313258E0,4.176086426E1,2.638410330E0,2.664836311E1
3.251327458E0,3.862206650E1,2.035071373E0,2.755815887E1
3.253341658E0,3.571550369E1,1.565807939E0,2.807051849E1
3.255355824E0,3.302891159E1,1.285686255E0,2.815431595E1
3.257369957E0,3.176237679E1,1.233013868E0,2.798193359E1
3.259384023E0,2.944000244E1,1.268926859E0,2.715114594E1
3.261398056E0,2.750309181E1,1.522712231E0,2.571223068E1
3.263412022E0,2.668427658E1,1.719036818E0,2.482158661E1
3.265425955E0,2.480722237E1,2.398990154E0,2.146701050E1
3.267439888E0,2.432568741E1,2.633621931E0,2.017893028E1
3.269453754E0,2.392106819E1,2.889801502E0,1.885254288E1
3.271467587E0,2.329378700E1,3.483563423E0,1.624286270E1
3.273481420E0,2.289634895E1,4.106055737E0,1.394652462E1
3.275495253E0,2.275748634E1,4.405331135E0,1.295771885E1
3.277509086E0,2.260425758E1,4.908412933E0,1.133444977E1
3.279522886E0,2.263777542E1,5.365705490E0,1.020678139E1
3.281536652E0,2.279579353E1,5.614702225E0,9.794978142E0
3.283550385E0,2.291071510E1,6.143820763E0,9.201216698E0
3.285564118E0,2.318125916E1,6.742371082E0,8.858845711E0
3.287577884E0,2.345419884E1,7.352892876E0,8.667309761E0
3.289591684E0,2.356672668E1,7.654561996E0,8.619425774E0
3.291605517E0,2.375347328E1,8.171710014E0,8.590695381E0
3.293619317E0,2.379656982E1,8.549993515E0,8.624214172E0
3.295633083E0,2.375347328E1,8.669703484E0,8.672098160E0
3.297646816E0,2.351165962E1,8.755894661E0,8.765471458E0
3.299660516E0,2.301366615E1,8.617031097E0,8.887576103E0
3.301674182E0,2.266889954E1,8.470984459E0,8.928277016E0
3.303687848E0,2.187641907E1,8.150161743E0,8.906729698E0
3.305701481E0,2.100253677E1,7.810185432E0,8.734347343E0
3.307715047E0,2.005922127E1,7.630620003E0,8.602665901E0
3.309728513E0,1.955883217E1,7.249941826E0,8.253112793E0
3.311742913E0,1.851017189E1,6.830956936E0,7.769483566E0
3.313756413E0,1.742081070E1,6.364087582E0,7.199663639E0
3.315769913E0,1.687014389E1,6.127061367E0,6.871658325E0
3.317783479E0,1.581908894E1,5.641038418E0,6.170156956E0
3.319797079E0,1.483746624E1,5.176563263E0,5.437531471E0
3.321810779E0,1.438945103E1,4.951508522E0,5.068824291E0
3.323824512E0,1.356105804E1,4.534617901E0,4.364629745E0
3.325838278E0,1.279251862E1,4.204218388E0,3.758896589E0
3.327852844E0,1.246690750E1,4.041412354E0,3.488351822E0
3.329867510E0,1.191863537E1,3.742137194E0,3.011905670E0
3.331882243E0,1.144697762E1,3.555389643E0,2.619256735E0
3.333897009E0,1.102799225E1,3.485957623E0,2.298433542E0
3.335911809E0,1.084124470E1,3.332728863E0,2.149993181E0
3.337926642E0,1.051802731E1,3.153163671E0,1.927332401E0
3.339941508E0,1.025705910E1,2.983175278E0,1.774103403E0
3.341956374E0,1.013256073E1,2.899378300E0,1.728613615E0
3.343971240E0,9.957783699E0,2.738966703E0,1.690306425E0
3.345986140E0,9.826103210E0,2.626439333E0,1.709460020E0
3.348028906E0,9.735123634E0,2.535459518E0,1.771709204E0
3.350071739E0,9.703998566E0,2.480392933E0,1.879448295E0
3.352114572E0,9.677662849E0,2.456450939E0,1.948880196E0
3.354157438E0,9.636960983E0,2.425326347E0,2.094926596E0
3.356200338E0,9.651326180E0,2.408566952E0,2.255337954E0
3.358243271E0,9.658509254E0,2.401384354E0,2.458845139E0
3.360286271E0,9.658509254E0,2.394201756E0,2.552218914E0
3.362329304E0,9.648932457E0,2.370259762E0,2.753331900E0
3.364372370E0,9.617807388E0,2.339135170E0,2.920926094E0
3.366415503E0,9.593865395E0,2.329558372E0,2.997540474E0
3.368458736E0,9.531616211E0,2.319981337E0,3.107673883E0
3.370502069E0,9.466972351E0,2.322375536E0,3.145981073E0
3.372544502E0,9.447818756E0,2.317587137E0,3.155557871E0
3.374587835E0,9.392752647E0,2.341529369E0,3.124433279E0
3.376631168E0,9.349657059E0,2.367865562E0,3.074155092E0
3.378674501E0,9.325715065E0,2.389413357E0,3.038241863E0
3.380717901E0,9.227552414E0,2.430114746E0,2.913743496E0
3.382761301E0,9.148544312E0,2.489969730E0,2.758120298E0
3.384804767E0,9.083900452E0,2.530671120E0,2.580949545E0
3.386848267E0,9.033622742E0,2.628833532E0,2.334346771E0
3.388890967E0,9.024045944E0,2.659958124E0,2.181117773E0
3.390933600E0,9.019257545E0,2.729389906E0,1.874659896E0
3.392976166E0,9.028834343E0,2.746149302E0,1.709460020E0
3.395031599E0,9.047987938E0,2.779668093E0,1.343147159E0
3.397087065E0,9.062353134E0,2.829946518E0,1.010353088E0
3.399142565E0,9.083900452E0,2.863465309E0,6.775590777E-1
3.401198065E0,9.086295128E0,2.885013103E0,5.075707436E-1
3.403253598E0,9.059958458E0,2.918531895E0,2.250549644E-1
3.405309198E0,8.966584206E0,2.925714493E0,-7.422025502E-2
3.407364764E0,8.851662636E0,2.899378300E0,-2.154781520E-1
3.409392464E0,8.777442932E0,2.844311714E0,-4.381389022E-1
3.411420130E0,8.626607895E0,2.782062292E0,-6.153098345E-1
3.413447796E0,8.418312073E0,2.715024710E0,-7.302315235E-1
3.415475462E0,8.289025307E0,2.681505919E0,-7.613561153E-1
3.417503162E0,7.968202591E0,2.595314741E0,-7.876923680E-1
3.419530862E0,7.587524414E0,2.511517525E0,-8.188169599E-1
3.421558562E0,7.372046471E0,2.454056740E0,-8.259995580E-1
3.423586262E0,6.900388718E0,2.334346771E0,-8.164227605E-1
3.425613962E0,6.421548367E0,2.205059767E0,-7.996633649E-1
3.427641628E0,6.179733753E0,2.126051188E0,-7.924807668E-1
3.430565628E0,5.473444462E0,1.865083098E0,-7.469909191E-1
3.432732407E0,5.011363506E0,1.671152830E0,-6.727706790E-1
3.434748407E0,4.788403511E0,1.572990537E0,-6.224924326E-1
3.436764407E0,4.369418144E0,1.391031146E0,-4.908113480E-1
3.438780907E0,3.936067581E0,1.170764685E0,-3.447650373E-1
3.440797240E0,3.715801001E0,1.079784989E0,-2.681505978E-1
3.442813240E0,3.270479441E0,9.241618514E-1,-1.197100878E-1
3.444829240E0,2.839523315E0,7.493851185E-1,9.576806799E-3
3.446845240E0,2.612074137E0,6.655880809E-1,5.985504389E-2
3.448861240E0,1.996764183E0,4.908113480E-1,1.268926859E-1
3.450876990E0,1.805228114E0,4.453215301E-1,1.125274822E-1
3.452892878E0,1.623268723E0,3.974374831E-1,9.337386489E-2
3.454908778E0,1.319205165E0,3.591302633E-1,2.154781483E-2
3.456924687E0,1.051054597E0,3.351882398E-1,-3.112462163E-2
3.458940603E0,8.595184088E-1,3.543418646E-1,-1.101332754E-1
3.460956526E0,7.661445141E-1,3.615244627E-1,-1.484405100E-1
3.462972383E0,6.105214357E-1,3.663128614E-1,-2.130839527E-1
3.464988183E0,4.285621047E-1,3.926490843E-1,-2.753331959E-1
3.467003995E0,3.495534360E-1,4.094084799E-1,-2.920926213E-1
3.469019877E0,1.723825186E-1,4.477157295E-1,-3.256114423E-1
3.471035654E0,-3.112462163E-2,4.525041282E-1,-3.280056417E-1
3.473051338E0,-1.364694983E-1,4.548983276E-1,-3.280056417E-1
3.475066938E0,-3.423708379E-1,4.740519226E-1,-3.016694188E-1
3.477082604E0,-5.602431893E-1,4.309563041E-1,-2.681505978E-1
3.479098285E0,-7.924807668E-1,4.165911078E-1,-2.394201756E-1
3.481113980E0,-9.193734527E-1,3.998316824E-1,-2.202665508E-1
3.483129688E0,-1.144428372E0,3.375824392E-1,-1.987187415E-1
3.485145408E0,-1.364694953E0,2.489969730E-1,-1.939303428E-1
3.487161100E0,-1.493981838E0,1.963245422E-1,-1.723825186E-1
3.489176766E0,-1.783680320E0,1.197100878E-1,-1.628057212E-1
3.491192408E0,-2.061407566E0,2.873042040E-2,-1.795651317E-1
3.493208028E0,-2.190694571E0,-1.675941236E-2,-2.059013397E-1
3.495223628E0,-2.422932148E0,-8.858546615E-2,-2.896983922E-1
3.497239261E0,-2.612074137E0,-1.747767180E-1,-4.357447028E-1
3.499254861E0,-2.703053713E0,-2.226607651E-1,-4.884171486E-1
3.501270394E0,-2.899378300E0,-2.753331959E-1,-5.865794420E-1
3.503285927E0,-3.076549292E0,-3.303998411E-1,-6.368576288E-1
3.505301427E0,-3.284844637E0,-3.495534360E-1,-6.488286853E-1
3.507316893E0,-3.406949043E0,-3.854664862E-1,-6.560112834E-1
3.509332326E0,-3.763684988E0,-4.788403511E-1,-6.655880809E-1
3.511347726E0,-3.883395195E0,-5.219359994E-1,-6.631938815E-1
3.513363092E0,-3.995922565E0,-5.698199868E-1,-6.607996821E-1
3.515378425E0,-4.220977783E0,-6.895300746E-1,-6.296750307E-1
3.517393725E0,-4.472368717E0,-7.924807668E-1,-5.841852427E-1
3.519408991E0,-4.604049683E0,-8.499416113E-1,-5.626373887E-1
3.521424257E0,-4.886565685E0,-9.313444495E-1,-5.219359994E-1
3.523439557E0,-5.152621269E0,-1.022324085E0,-5.051765442E-1
3.525454857E0,-5.289090633E0,-1.058237195E0,-4.979939461E-1
3.527470157E0,-5.585971832E0,-1.151610970E0,-4.932055473E-1
3.529485457E0,-5.880458832E0,-1.254561663E0,-5.123591423E-1
3.531500823E0,-6.184522152E0,-1.302445769E0,-5.171475410E-1
3.533516256E0,-6.342539787E0,-1.400607944E0,-5.267243981E-1
3.535531756E0,-6.675333500E0,-1.479616642E0,-5.746083856E-1
3.537547189E0,-6.986579895E0,-1.522712231E0,-6.344634295E-1
3.539562589E0,-7.158962250E0,-1.525106430E0,-6.607996821E-1
3.541578022E0,-7.470208645E0,-1.510741234E0,-7.110779285E-1
3.543593388E0,-7.733570576E0,-1.482010841E0,-7.541735172E-1
3.545608788E0,-7.872434616E0,-1.470039845E0,-7.876923680E-1
3.547624221E0,-8.083124161E0,-1.470039845E0,-8.499416113E-1
3.549639687E0,-8.265083313E0,-1.486799240E0,-8.906430602E-1
3.551655120E0,-8.365639687E0,-1.491587639E0,-8.978256583E-1
3.553670520E0,-8.566753387E0,-1.515529633E0,-9.265560508E-1
3.555686620E0,-8.775048256E0,-1.539471745E0,-9.481038451E-1
3.557701986E0,-8.997709274E0,-1.570596337E0,-9.840168953E-1
3.559717352E0,-9.110237122E0,-1.623268723E0,-9.864110947E-1
3.561732785E0,-9.361627579E0,-1.683123827E0,-9.816226959E-1
3.563748251E0,-9.584288597E0,-1.738190413E0,-9.457096457E-1
3.565763717E0,-9.687239647E0,-1.745373011E0,-9.241618514E-1
3.567779183E0,-9.893140793E0,-1.778891921E0,-8.547300100E-1
3.569794649E0,-1.010622501E1,-1.805228114E0,-7.709329724E-1
3.571810882E0,-1.019002151E1,-1.836352706E0,-7.350199223E-1
3.573827082E0,-1.038155746E1,-1.898601890E0,-6.488286853E-1
3.575843282E0,-1.060182476E1,-2.013523579E0,-5.626373887E-1
3.577859482E0,-1.073350525E1,-2.066195965E0,-5.267243981E-1
3.579875682E0,-1.108784771E1,-2.209848166E0,-4.333505034E-1
3.581891882E0,-1.149965000E1,-2.442085743E0,-3.711012602E-1
3.583908082E0,-1.193778896E1,-2.746149302E0,-3.543418646E-1
3.585924282E0,-1.218199730E1,-2.925714493E0,-3.423708379E-1
3.587940448E0,-1.270153904E1,-3.339911461E0,-2.753331959E-1
3.589956548E0,-1.331445503E1,-3.794809580E0,-2.130839527E-1
3.592878548E0,-1.404229259E1,-4.197035789E0,-1.412578970E-1
3.594898407E0,-1.492126369E1,-4.560954094E0,-1.029506698E-1
3.596913407E0,-1.541207504E1,-4.711789131E0,-8.619125932E-2
3.598928407E0,-1.642721558E1,-4.970662117E0,-5.027823523E-2
3.600943407E0,-1.750700188E1,-5.186140060E0,-3.830722719E-2
3.602958740E0,-1.860115242E1,-5.344157696E0,-7.422025502E-2
3.604973990E0,-1.914702988E1,-5.404012680E0,-1.221042871E-1
3.606989190E0,-2.022442055E1,-5.456685066E0,-2.322375625E-1
3.609004356E0,-2.130420494E1,-5.456685066E0,-3.519476354E-1
3.611019498E0,-2.181895828E1,-5.471050262E0,-4.213795066E-1
3.613034623E0,-2.281255150E1,-5.523722649E0,-5.315127969E-1
3.615049734E0,-2.379656982E1,-5.641038418E0,-5.865794420E-1
3.617064834E0,-2.430174637E1,-5.732017994E0,-6.248866320E-1
3.619080015E0,-2.529084969E1,-5.966650009E0,-7.374141216E-1
3.621095265E0,-2.622937775E1,-6.249165535E0,-9.193734527E-1
3.623110495E0,-2.668427658E1,-6.402394772E0,-1.027112484E0
3.625125852E0,-2.754858208E1,-6.756736279E0,-1.230619669E0
3.627141118E0,-2.834824562E1,-7.197269440E0,-1.362300754E0
3.629156305E0,-2.907847786E1,-7.764695168E0,-1.491587639E0
3.631171481E0,-2.970575905E1,-8.475772858E0,-1.570596337E0
3.633186536E0,-2.999066925E1,-8.880393028E0,-1.584961534E0
3.635201483E0,-3.050542259E1,-9.737517357E0,-1.599326730E0
3.637216283E0,-3.073287010E1,-1.020199299E1,-1.608903527E0
3.639248568E0,-3.111833763E1,-1.127459526E1,-1.635239720E0
3.641280113E0,-3.129311371E1,-1.256028175E1,-1.642422318E0
3.643310895E0,-3.129790306E1,-1.412130070E1,-1.565807939E0
3.645340978E0,-3.124522972E1,-1.497872448E1,-1.496376038E0
3.647370418E0,-3.102735710E1,-1.681986618E1,-1.247379065E0
3.649399341E0,-3.056527710E1,-1.884057236E1,-8.116343617E-1
3.651427748E0,-2.988532257E1,-1.985571289E1,-5.291185975E-1
3.653455676E0,-2.946154976E1,-2.199612999E1,1.460463107E-1
3.655483193E0,-2.835063934E1,-2.427062035E1,1.024718285E0
3.657510293E0,-2.683032227E1,-2.670343018E1,2.085349798E0
3.659537393E0,-2.591813087E1,-2.795080757E1,2.671929121E0
3.661564493E0,-2.369122505E1,-3.052936363E1,3.993528366E0
3.663591559E0,-2.076551056E1,-3.306482315E1,5.399224281E0
3.665618625E0,-1.901774216E1,-3.438911438E1,6.160580158E0
3.667645691E0,-1.486619663E1,-3.715441895E1,7.573159218E0
3.669672757E0,-9.955389977E0,-3.962284088E1,8.418312073E0
3.671699790E0,-7.118260860E0,-4.075051117E1,8.667309761E0
3.673754756E0,2.643198729E0,-4.311837387E1,9.239523888E0
3.675809756E0,6.275501728E0,-4.356369781E1,9.404723167E0
3.677864756E0,1.422664547E1,-4.384381866E1,9.850045204E0
3.679919689E0,2.304957771E1,-4.311119461E1,1.076941872E1
3.681974555E0,3.269132614E1,-4.093486404E1,1.227297688E1
3.684029421E0,3.778170013E1,-3.927568054E1,1.317559147E1
3.686084187E0,4.825902557E1,-3.483683014E1,1.519659710E1
3.688139020E0,5.825990677E1,-2.932508087E1,1.726518631E1
3.690193886E0,6.335237122E1,-2.619825363E1,1.818934822E1
3.692248752E0,7.541735077E1,-1.594837570E1,2.030582237E1
3.694303618E0,7.693766785E1,-1.230889034E1,2.080381775E1
3.696358551E0,7.769902802E1,-8.554781914E0,2.125871468E1
3.698413551E0,7.826884460E1,-7.757213712E-1,2.218048286E1
3.700456284E0,7.841249847E1,6.785466671E0,2.293226242E1
3.702498984E0,7.844841003E1,1.024269390E1,2.326505661E1
3.704541717E0,7.845320129E1,1.602738380E1,2.337040138E1
3.706584483E0,7.845320129E1,1.975755119E1,2.360263824E1
3.708627283E0,7.845320129E1,2.277424431E1,2.445018578E1
3.710670083E0,7.845320129E1,2.366488838E1,2.495566177E1
3.712712883E0,7.845320129E1,2.435441780E1,2.591813087E1
3.714755616E0,7.845320129E1,2.329857445E1,2.594925499E1
3.716798249E0,7.845320129E1,2.219245338E1,2.554224205E1
3.718840849E0,7.845320129E1,1.931462288E1,2.429216957E1
3.720883449E0,7.773733521E1,1.604653740E1,2.272157288E1
3.722926015E0,7.567114258E1,1.435353851E1,2.184768867E1
3.724968615E0,6.907960510E1,1.102799225E1,2.012386322E1
3.727011248E0,6.191106415E1,7.956231594E0,1.877113914E1
3.729053881E0,5.846101761E1,6.550835133E0,1.833539581E1
3.731096514E0,5.200355911E1,3.964797974E0,1.819174385E1
3.733139280E0,4.607551575E1,1.783680320E0,1.892676353E1
3.735154113E0,4.068825912E1,9.816227108E-2,2.018611336E1
3.737168913E0,3.818871307E1,-5.770025849E-1,2.090197945E1
3.739183713E0,3.379026794E1,-1.558625340E0,2.213499260E1
3.741198613E0,3.005291748E1,-2.123656988E0,2.303042412E1
3.743213479E0,2.847274399E1,-2.236184359E0,2.336800766E1
3.745228345E0,2.591813087E1,-2.188300371E0,2.366967583E1
3.747243245E0,2.410781479E1,-1.917755604E0,2.346616936E1
3.749258111E0,2.343504524E1,-1.680729628E0,2.315731812E1
3.751272977E0,2.246539307E1,-1.019929886E0,2.221400261E1
3.753287777E0,2.193387985E1,-2.250549644E-1,2.092352676E1
3.755304310E0,2.175192070E1,1.723825186E-1,1.931701851E1
3.757319043E0,2.173037338E1,9.409212470E-1,1.841201019E1
3.759333809E0,2.178304482E1,1.608903527E0,1.649425316E1
3.761348609E0,2.178544044E1,2.178723574E0,1.446846008E1
3.763363409E0,2.178065109E1,2.456450939E0,1.348444366E1
3.765378175E0,2.172797966E1,3.105279684E0,1.178216553E1
3.767392941E0,2.165615273E1,3.842693806E0,1.038874054E1
3.769407741E0,2.158911514E1,4.211400986E0,9.785401344E0
3.771422474E0,2.148377037E1,4.881777287E0,8.708010674E0
3.773437207E0,2.134490585E1,5.411195278E0,7.750329971E0
3.775452007E0,2.124435043E1,5.609913826E0,7.331345081E0
3.777466873E0,2.100014114E1,5.925948620E0,6.596324921E0
3.779481806E0,2.067453003E1,6.115090370E0,5.954679012E0
3.781496706E0,2.047820663E1,6.165368557E0,5.679345608E0
3.783511606E0,1.997302818E1,6.220435143E0,5.272331238E0
3.785526472E0,1.929068184E1,6.203675747E0,5.030517101E0
3.787541305E0,1.848144150E1,6.098330975E0,4.867412090E0
3.789556171E0,1.802654266E1,6.002563000E0,4.809951305E0
3.791571037E0,1.702576637E1,5.765536785E0,4.742913723E0
3.793585770E0,1.597950077E1,5.444714069E0,4.678270340E0
3.795600436E0,1.542883396E1,5.265148640E0,4.594472885E0
3.797615036E0,1.430804825E1,4.881777287E0,4.314351559E0
3.799629602E0,1.318995667E1,4.496310711E0,3.907337189E0
3.801644135E0,1.263450146E1,4.297592163E0,3.660734415E0
3.803658735E0,1.153077507E1,3.895366192E0,3.074155092E0
3.805673335E0,1.047014332E1,3.485957623E0,2.403778553E0
3.807687935E0,9.979331970E0,3.292027235E0,2.054224968E0
3.809702568E0,9.002497673E0,2.942473888E0,1.347935557E0
3.811717201E0,8.126219749E0,2.650381327E0,6.512228847E-1
3.813731901E0,7.348104477E0,2.432508945E0,-2.394201700E-3
3.815745634E0,6.981791496E0,2.348711967E0,-3.160346150E-1
3.817761234E0,6.323386192E0,2.166752577E0,-9.026140571E-1
3.819776800E0,5.727229595E0,2.032677174E0,-1.403002143E0
3.821792400E0,5.449502468E0,1.970427990E0,-1.620874524E0
3.823808000E0,4.975450516E0,1.838746905E0,-2.006340981E0
3.825823633E0,4.568136692E0,1.723825216E0,-2.284068346E0
3.827839266E0,4.398148537E0,1.671152830E0,-2.387019157E0
3.829854866E0,4.132391930E0,1.553836942E0,-2.511517525E0
3.831870499E0,3.916913986E0,1.450886250E0,-2.521094322E0
3.833886132E0,3.727771997E0,1.419761658E0,-2.442085743E0
3.835930032E0,3.514688015E0,1.386242747E0,-2.324769735E0
3.837973965E0,3.303998232E0,1.424550056E0,-2.193088770E0
3.840017898E0,3.217807055E0,1.455674648E0,-2.111685991E0
3.842061864E0,3.090914488E0,1.546654344E0,-1.946485996E0
3.844105864E0,3.011905670E0,1.625662923E0,-1.733402014E0
3.846149830E0,2.964021683E0,1.656787634E0,-1.618480325E0
3.848193796E0,2.889801502E0,1.719036818E0,-1.374271750E0
3.850237696E0,2.808398485E0,1.754949808E0,-1.130063176E0
3.852281629E0,2.767697096E0,1.762132406E0,-9.840168953E-1
3.854325562E0,2.705447912E0,1.793257117E0,-7.015010715E-1
3.856369528E0,2.633621931E0,1.805228114E0,-4.453215301E-1
3.858413561E0,2.573766708E0,1.788468719E0,-2.442085743E-1
3.860457627E0,2.533065319E0,1.771709204E0,-1.628057212E-1
3.862501660E0,2.461239338E0,1.745373011E0,-5.027823523E-2
3.864545726E0,2.406172752E0,1.731007814E0,5.027823523E-2
3.866589826E0,2.370259762E0,1.731007814E0,8.619125932E-2
3.868633926E0,2.272097349E0,1.742978811E0,1.125274822E-1
3.870678026E0,2.176329374E0,1.776497602E0,9.097966552E-2
3.872722126E0,2.135627985E0,1.783680320E0,6.224924326E-2
3.874766259E0,2.011129379E0,1.867477298E0,-4.548983276E-2
3.876809659E0,1.965639591E0,1.884236693E0,-8.379705995E-2
3.878852992E0,1.910573006E0,1.910573006E0,-1.244984865E-1
3.880896325E0,1.829170108E0,1.970427990E0,-2.106897533E-1
3.882955091E0,1.752555609E0,1.996764183E0,-2.585737705E-1
3.885567407E0,1.692700624E0,2.037465572E0,-3.040636182E-1
3.887582407E0,1.618480325E0,2.068590164E0,-3.040636182E-1
3.889598407E0,1.601720929E0,2.087743998E0,-2.992752194E-1
3.891614407E0,1.592144132E0,2.171540976E0,-2.633621991E-1
3.893630073E0,1.630451322E0,2.252943754E0,-2.178723514E-1
3.895645573E0,1.649604917E0,2.296039343E0,-1.915361285E-1
3.897661173E0,1.740584612E0,2.406172752E0,-1.221042871E-1
3.899676506E0,1.886630893E0,2.554613113E0,-5.267243832E-2
3.901692077E0,1.975216389E0,2.628833532E0,-1.675941236E-2
3.903707702E0,2.176329374E0,2.791639090E0,7.661445439E-2
3.905723257E0,2.387019157E0,2.987963676E0,1.508347094E-1
3.907738757E0,2.600103140E0,3.184288263E0,2.082955539E-1
3.909754302E0,2.712630510E0,3.265691042E0,2.298433632E-1
3.911769885E0,2.942473888E0,3.457227230E0,2.442085743E-1
3.913785423E0,3.167528868E0,3.624821424E0,2.154781520E-1
3.915800851E0,3.263296843E0,3.703830004E0,2.035071403E-1
3.918733851E0,3.500322819E0,3.864241600E0,1.699883193E-1
3.920748407E0,3.550601006E0,3.914519787E0,1.699883193E-1
3.922763407E0,3.643975019E0,4.039018154E0,1.675941199E-1
3.924778407E0,3.722983599E0,4.129997730E0,1.604115069E-1
3.926792907E0,3.809175014E0,4.199429989E0,1.604115069E-1
3.928807573E0,3.833117008E0,4.223371983E0,1.651999205E-1
3.930822323E0,3.869029999E0,4.268861771E0,1.795651317E-1
3.932837323E0,3.861847401E0,4.280832767E0,2.274491638E-1
3.934852323E0,3.837905407E0,4.278438568E0,2.537853718E-1
3.936867323E0,3.727771997E0,4.271255970E0,3.256114423E-1
3.938882073E0,3.658340216E0,4.259284973E0,3.543418646E-1
3.940896961E0,3.588908434E0,4.244919777E0,3.830722570E-1
3.942911861E0,3.454833031E0,4.185064793E0,4.644751251E-1
3.944926770E0,3.299209833E0,4.120420933E0,5.506663918E-1
3.946941686E0,3.114856482E0,4.096478939E0,6.224924326E-1
3.948956609E0,3.028665066E0,4.036623955E0,6.368576288E-1
3.950971537E0,2.868253708E0,3.979163170E0,6.536170840E-1
3.952986470E0,2.693476915E0,3.914519787E0,6.320692301E-1
3.955001407E0,2.609679937E0,3.885789394E0,6.153098345E-1
3.957016348E0,2.425326347E0,3.821146011E0,5.817909837E-1
3.959031181E0,2.260126352E0,3.730166197E0,5.219359994E-1
3.961045917E0,2.188300371E0,3.682282209E0,4.764461517E-1
3.963060567E0,2.047042370E0,3.610456228E0,4.022258818E-1
3.965075233E0,1.896207690E0,3.548206806E0,3.399766386E-1
3.967089960E0,1.817199111E0,3.524264812E0,3.016694188E-1
3.969104655E0,1.668758631E0,3.490746021E0,2.250549644E-1
3.971119363E0,1.522712231E0,3.471592426E0,1.723825186E-1
3.973134083E0,1.443703651E0,3.476380825E0,1.460463107E-1
3.975148813E0,1.290474772E0,3.493140221E0,7.182604820E-2
3.977163553E0,1.142034173E0,3.488351822E0,3.112462163E-2
3.979178303E0,1.046266198E0,3.519476414E0,-7.182605099E-3
3.981193027E0,1.003170490E0,3.541024208E0,-4.070143029E-2
3.983207760E0,9.409212470E-1,3.608062029E0,-1.173158810E-1
3.985222460E0,9.121908545E-1,3.667917013E0,-1.867477298E-1
3.987237226E0,8.930372596E-1,3.703830004E0,-2.226607651E-1
3.989251992E0,8.810662031E-1,3.785232782E0,-2.849099934E-1
3.991266758E0,8.810662031E-1,3.897760391E0,-3.399766386E-1
3.993281524E0,8.906430602E-1,3.938461781E0,-3.591302633E-1
3.995296324E0,9.002198577E-1,4.036623955E0,-4.333505034E-1
3.997311124E0,9.193734527E-1,4.237737179E0,-5.219359994E-1
3.999325924E0,9.241618514E-1,4.237737179E0,-5.219359994E-1
4.001340724E0,9.361328483E-1,4.367023945E0,-6.081272364E-1
4.003355524E0,9.816226959E-1,4.469974518E0,-6.823474765E-1
4.005370324E0,1.012747288E0,4.572925091E0,-7.158663273E-1
4.007385157E0,1.027112484E0,4.611232281E0,-7.278373241E-1
4.009399990E0,1.063025594E0,4.671087742E0,-7.374141216E-1
4.011414790E0,1.060631394E0,4.733336926E0,-7.852981687E-1
4.013429590E0,1.058237195E0,4.750096321E0,-8.092401624E-1
4.015444390E0,1.055842996E0,4.788403511E0,-8.690952063E-1
4.017459190E0,1.022324085E0,4.819528103E0,-9.361328483E-1
4.019474056E0,1.019929886E0,4.843470097E0,-9.696516991E-1
4.021489022E0,1.007958889E0,4.888959885E0,-1.063025594E0
4.023504088E0,9.864110947E-1,4.927566528E0,-1.149216771E0
4.025519188E0,9.911994934E-1,4.953902721E0,-1.185129881E0
4.027534254E0,9.648633003E-1,4.982633114E0,-1.256955862E0
4.029549354E0,9.481038451E-1,5.018546104E0,-1.319205165E0
4.031564487E0,8.978256583E-1,5.068824291E0,-1.359906554E0
4.033579620E0,8.667010069E-1,5.099948883E0,-1.383848548E0
4.035594753E0,8.116343617E-1,5.159803867E0,-1.434126854E0
4.037609919E0,7.422025204E-1,5.207687855E0,-1.458068848E0
4.039625019E0,7.134721279E-1,5.222053051E0,-1.455674648E0
4.041640152E0,6.607996821E-1,5.210082054E0,-1.465251446E0
4.043656885E0,5.770025849E-1,5.198111057E0,-1.465251446E0
4.045672051E0,5.243301988E-1,5.171774864E0,-1.446097851E0
4.047687184E0,4.357447028E-1,5.087977886E0,-1.431732655E0
4.049702284E0,3.160346150E-1,4.977844715E0,-1.441309452E0
4.051717417E0,1.580173075E-1,4.896441936E0,-1.443703651E0
4.053732517E0,7.422025502E-2,4.704606533E0,-1.414973259E0
4.055747550E0,-1.125274822E-1,4.548983097E0,-1.374271750E0
4.057762616E0,-2.657563984E-1,4.374206543E0,-1.379060149E0
4.059777682E0,-3.351882398E-1,4.292803764E0,-1.379060149E0
4.061792715E0,-4.668693244E-1,4.153939724E0,-1.371877551E0
4.063807781E0,-5.626373887E-1,4.012681961E0,-1.338358760E0
4.065822847E0,-5.889736414E-1,3.962403774E0,-1.328781962E0
4.067837913E0,-5.913678408E-1,3.871424198E0,-1.314416766E0
4.069852946E0,-5.363011956E-1,3.818751812E0,-1.369483352E0
4.071867979E0,-4.788403511E-1,3.813963413E0,-1.405396342E0
4.073882979E0,-3.016694188E-1,3.811569214E0,-1.458068848E0
4.075897979E0,-3.112462163E-2,3.821146011E0,-1.508347034E0
4.077912979E0,2.896983922E-1,3.881000996E0,-1.565807939E0
4.080846979E0,6.727706790E-1,3.940855980E0,-1.599326730E0
4.082861407E0,1.118092179E0,4.067748547E0,-1.594538331E0
4.084876407E0,1.359906554E0,4.127603531E0,-1.572990537E0
4.086891407E0,1.848323703E0,4.268861771E0,-1.532289028E0
4.088906907E0,2.372653961E0,4.438849926E0,-1.482010841E0
4.090922240E0,2.643198729E0,4.503493309E0,-1.443703651E0
4.092937490E0,3.251325846E0,4.625597477E0,-1.352723956E0
4.094952890E0,3.892971992E0,4.745307922E0,-1.201889277E0
4.096968223E0,4.570530891E0,4.819528103E0,-1.031900883E0
4.098983508E0,4.941931725E0,4.908412933E0,-9.289502501E-1
4.100998758E0,5.696105003E0,5.006575108E0,-6.799532771E-1
4.103014091E0,6.538864136E0,5.097554684E0,-4.022258818E-1
4.105029591E0,6.974608898E0,5.128679276E0,-2.585737705E-1
4.107045045E0,7.874828815E0,5.226841450E0,5.267243832E-2
4.109060461E0,8.808567047E0,5.293879032E0,3.567360640E-1
4.111075922E0,9.344868660E0,5.327397823E0,5.051765442E-1
4.113091350E0,1.042465305E1,5.375282288E0,8.212111592E-1
4.115106816E0,1.154274559E1,5.408801079E0,1.213860273E0
4.117122253E0,1.213411331E1,5.427954674E0,1.419761658E0
4.119137723E0,1.395849514E1,5.526116848E0,2.047042370E0
4.121153056E0,1.458098793E1,5.564424038E0,2.257732153E0
4.123168319E0,1.582866573E1,5.609913826E0,2.693476915E0
4.125183519E0,1.647749519E1,5.708076000E0,2.894589901E0
4.127216042E0,1.782542992E1,5.851728439E0,3.292027235E0
4.129247860E0,1.918773079E1,6.014533997E0,3.588908434E0
4.131278903E0,2.057636833E1,6.225223541E0,3.871424198E0
4.133309278E0,2.127308083E1,6.342539787E0,4.015076160E0
4.135339038E0,2.264495850E1,6.648997307E0,4.285621166E0
4.137368230E0,2.398810577E1,7.024887085E0,4.529829502E0
4.139396896E0,2.465159798E1,7.233182430E0,4.656722069E0
4.141425038E0,2.594207382E1,7.704840183E0,4.927566528E0
4.143452693E0,2.714875031E1,8.159738541E0,5.202899456E0
4.145479926E0,2.770660019E1,8.377611160E0,5.346551895E0
4.147507192E0,2.870258713E1,8.837297440E0,5.696105003E0
4.149534392E0,2.955731773E1,9.206005096E0,6.093542576E0
4.151561625E0,3.024205971E1,9.375992775E0,6.519710541E0
4.153588858E0,3.053654671E1,9.684844971E0,6.766313076E0
4.155616091E0,3.101299286E1,9.960178375E0,7.328950882E0
4.157643357E0,3.129071999E1,1.016129112E1,8.013691902E0
4.159670590E0,3.136494064E1,1.022593498E1,8.415918350E0
4.161725990E0,3.142240143E1,1.034085655E1,9.694421768E0
4.163781390E0,3.139127541E1,1.035522175E1,1.014692593E1
4.165836690E0,3.127156639E1,1.035043335E1,1.110221291E1
4.167891956E0,3.112073135E1,1.029297256E1,1.202398014E1
4.169947189E0,3.091243553E1,1.026424217E1,1.246451378E1
4.172002355E0,3.079751396E1,1.017565632E1,1.324023438E1
4.174057521E0,3.048387337E1,1.003439903E1,1.390103436E1
4.176112654E0,3.007686043E1,9.862015724E0,1.435353851E1
4.178167754E0,2.983025742E1,9.747094154E0,1.452352715E1
4.180222854E0,2.888933563E1,9.347262383E0,1.465041924E1
4.182278687E0,2.850387001E1,9.208398819E0,1.454028606E1
4.184334587E0,2.810403824E1,9.059958458E0,1.434635544E1
4.186390487E0,2.723973083E1,8.722375870E0,1.374541092E1
4.188434287E0,2.634908676E1,8.370428085E0,1.299363232E1
4.190478020E0,2.591334343E1,8.178892136E0,1.259858894E1
4.192521786E0,2.502509308E1,7.740753174E0,1.174625301E1
4.194565586E0,2.417964172E1,7.235576630E0,1.079336071E1
4.196609352E0,2.377023315E1,6.967426300E0,1.029776096E1
4.198653118E0,2.298972321E1,6.435913563E0,9.335291862E0
4.200696918E0,2.228104019E1,5.952284813E0,8.475772858E0
4.202740718E0,2.163939285E1,5.530905247E0,7.702445984E0
4.204784518E0,2.132335854E1,5.372888088E0,7.345710278E0
4.206830251E0,2.072959709E1,5.109525681E0,6.680121899E0
4.208874017E0,2.014301682E1,4.893748283E0,6.050446987E0
4.210917817E0,1.985092545E1,4.783615112E0,5.748777390E0
4.212961583E0,1.925237465E1,4.582501888E0,5.150227070E0
4.215005383E0,1.862509346E1,4.429273129E0,4.522646904E0
4.217049183E0,1.830905914E1,4.328716755E0,4.223371983E0
4.219092983E0,1.769135475E1,4.113238335E0,3.620033026E0
4.221136849E0,1.703055573E1,3.912125587E0,3.045424461E0
4.223152482E0,1.635539055E1,3.804386616E0,2.774879694E0
4.225168082E0,1.602259636E1,3.552995205E0,2.250549555E0
4.227183715E0,1.534982586E1,3.342305660E0,1.771709204E0
4.229199381E0,1.472015095E1,3.112462282E0,1.364694953E0
4.231215081E0,1.441578770E1,2.995146275E0,1.180341482E0
4.233230781E0,1.378850651E1,2.789244890E0,8.307880163E-1
4.235246481E0,1.318756199E1,2.590526342E0,5.123591423E-1
4.237262147E0,1.289307499E1,2.485181332E0,3.519476354E-1
4.239277813E0,1.227058315E1,2.288856745E0,6.943184882E-2
4.241293413E0,1.163372517E1,2.104503393E0,-1.244984865E-1
4.243310113E0,1.133205605E1,2.006340981E0,-1.987187415E-1
4.245324946E0,1.074308205E1,1.807622313E0,-3.471592367E-1
4.247339812E0,1.016847420E1,1.644816518E0,-4.932055473E-1
