"Time (s)","Acceleration x (m/s^2)","Acceleration y (m/s^2)","Acceleration z (m/s^2)","Absolute acceleration (m/s^2)"
9.098096000E-3,4.934749126E0,5.245995045E0,6.725611687E0,9.854240991E0
1.110909600E-2,4.944325924E0,5.243600845E0,6.749553680E0,9.874116849E0
1.312209600E-2,4.953902721E0,5.245995045E0,6.780678272E0,9.901475345E0
1.513409600E-2,4.968267918E0,5.243600845E0,6.785466671E0,9.910680797E0
1.716242900E-2,4.989815712E0,5.236418247E0,6.725611687E0,9.876851192E0
1.917467900E-2,4.970662117E0,5.236418247E0,6.646603107E0,9.813505531E0
2.118707900E-2,4.968267918E0,5.245995045E0,6.591536522E0,9.780209805E0
2.319957900E-2,4.958691120E0,5.320215225E0,6.459855556E0,9.727437560E0
2.521229300E-2,4.963479519E0,5.404012680E0,6.309020519E0,9.676942797E0
2.722504300E-2,4.951508522E0,5.435137272E0,6.237194538E0,9.641615503E0
2.923782000E-2,4.958691120E0,5.523722649E0,6.103119373E0,9.609796856E0
3.125072000E-2,4.973056316E0,5.605125427E0,5.957073212E0,9.572640254E0
3.326362900E-2,5.028122902E0,5.655403614E0,5.813420773E0,9.542613428E0
3.527646200E-2,5.037699699E0,5.667374611E0,5.746383190E0,9.514119666E0
3.728930800E-2,5.152621269E0,5.676951408E0,5.590760231E0,9.488618614E0
3.930216500E-2,5.277119637E0,5.691316605E0,5.459079266E0,9.488973747E0
4.131503100E-2,5.284302235E0,5.693710804E0,5.423166275E0,9.473802049E0
4.332790600E-2,5.257966042E0,5.669768810E0,5.380070686E0,9.420066127E0
4.534078800E-2,5.255571842E0,5.621884823E0,5.305850029E0,9.347655796E0
4.735367600E-2,5.255571842E0,5.593154430E0,5.291484833E0,9.322243486E0
4.936657000E-2,5.279513836E0,5.528511047E0,5.289090633E0,9.295815213E0
5.142212000E-2,5.317821026E0,5.480627060E0,5.265148640E0,9.275682381E0
5.347569100E-2,5.315426826E0,5.365705490E0,5.234024048E0,9.189100363E0
5.552741800E-2,5.265148640E0,5.260360241E0,5.207687855E0,9.083677276E0
5.757746100E-2,5.171774864E0,5.131073475E0,5.181351662E0,8.939886761E0
5.962596100E-2,5.107131481E0,5.073612690E0,5.188534260E0,8.873850656E0
6.167308100E-2,4.965873718E0,4.953902721E0,5.281908035E0,8.780638157E0
6.371892700E-2,4.833893299E0,4.862623692E0,5.368099689E0,8.707934765E0
6.576355600E-2,4.776432514E0,4.805162907E0,5.418377876E0,8.675408747E0
6.780709100E-2,4.687847137E0,4.697423935E0,5.547664642E0,8.649756378E0
6.984957300E-2,4.625597477E0,4.572925091E0,5.732017994E0,8.669707388E0
7.189107300E-2,4.606443882E0,4.508281708E0,5.820603371E0,8.684661927E0
7.393253900E-2,4.625597477E0,4.357447147E0,6.002563000E0,8.741525052E0
7.597410500E-2,4.704606533E0,4.177882195E0,6.194098949E0,8.829206310E0
7.801403800E-2,4.762067318E0,4.086902142E0,6.265924931E0,8.868025118E0
8.005560400E-2,4.848258495E0,3.933673382E0,6.452672958E0,8.978662763E0
8.209717000E-2,4.949114323E0,3.823540211E0,6.644208908E0,9.124620778E0
8.413877000E-2,5.080795288E0,3.775655985E0,6.763918877E0,9.263943947E0
8.618030300E-2,5.150227070E0,3.770867586E0,6.807014942E0,9.331652246E0
8.822180300E-2,5.255571842E0,3.758896589E0,6.862081528E0,9.425417861E0
9.026330300E-2,5.370493889E0,3.770867586E0,6.912359715E0,9.531126050E0
9.230470300E-2,5.427954674E0,3.770867586E0,6.929119110E0,9.575741534E0
9.434606900E-2,5.530905247E0,3.794809580E0,6.950666904E0,9.659361418E0
9.638843500E-2,5.669768810E0,3.835511208E0,6.988974094E0,9.782800390E0
9.842986800E-2,5.732017994E0,3.857059002E0,7.027281284E0,9.854725601E0
1.004713010E-1,5.913977623E0,3.885789394E0,7.125443459E0,1.004223257E1
1.025127340E-1,6.033687592E0,3.945644379E0,7.206846237E0,1.019372985E1
1.045541670E-1,6.055235386E0,3.991134167E0,7.235576630E0,1.024444223E1
1.065956000E-1,6.081571579E0,4.094084740E0,7.269095421E0,1.032408790E1
1.086370330E-1,6.038475990E0,4.170699596E0,7.245153427E0,1.031262215E1
1.106784990E-1,5.981015205E0,4.276044369E0,7.175721645E0,1.027365950E1
1.126915320E-1,5.959467411E0,4.323928356E0,7.130231857E0,1.024947875E1
1.147045650E-1,5.909189224E0,4.381389141E0,7.022492886E0,1.017007839E1
1.167176310E-1,5.858911037E0,4.443638325E0,6.919542313E0,1.009716920E1
1.187307640E-1,5.856516838E0,4.481945515E0,6.883629322E0,1.008816027E1
1.207438970E-1,5.861305237E0,4.537012100E0,6.799831867E0,1.005868238E1
1.227569970E-1,5.882853031E0,4.592078686E0,6.737582684E0,1.005436059E1
1.247700630E-1,5.897218227E0,4.611232281E0,6.732794285E0,1.006832483E1
1.267831630E-1,5.945102215E0,4.608838081E0,6.735188484E0,1.009694967E1
1.287962290E-1,5.985803604E0,4.589684486E0,6.751947880E0,1.012343068E1
1.308092950E-1,6.004957199E0,4.503493309E0,6.763918877E0,1.010403689E1
1.328222610E-1,5.961861610E0,4.374206543E0,6.773495674E0,1.002784725E1
1.348352940E-1,5.712864399E0,3.871424198E0,6.845322132E0,9.720245885E0
1.368482940E-1,5.717652798E0,3.770867586E0,6.744765282E0,9.612640354E0
1.388612940E-1,5.705681801E0,3.708618402E0,6.660968304E0,9.522455251E0
1.408742940E-1,5.597942829E0,3.694253206E0,6.579565525E0,9.395485787E0
1.428872940E-1,5.494992256E0,3.761290789E0,6.550835133E0,9.341075378E0
1.449002600E-1,5.401618481E0,3.821146011E0,6.553229332E0,9.312542818E0
1.469132930E-1,5.116708279E0,3.945644379E0,6.498162746E0,9.163783730E0
1.489263590E-1,4.778826714E0,4.007893562E0,6.316203594E0,8.876644828E0
1.509394250E-1,4.623203278E0,3.991134167E0,6.208464146E0,8.709086492E0
1.529525250E-1,4.359841347E0,3.945644379E0,5.978621006E0,8.385716145E0
1.549656580E-1,4.132391930E0,3.852270603E0,5.775113583E0,8.078897744E0
1.569778240E-1,4.055777550E0,3.809175014E0,5.686528206E0,7.955862547E0
1.589909240E-1,3.960009575E0,3.754108191E0,5.502174854E0,7.749124613E0
1.610039900E-1,3.924096584E0,3.682282209E0,5.377676487E0,7.607702720E0
1.630170230E-1,3.931279182E0,3.675099611E0,5.339369297E0,7.580908762E0
1.650300560E-1,3.964797974E0,3.718195200E0,5.329792023E0,7.612573909E0
1.670430890E-1,4.000710964E0,3.751713991E0,5.320215225E0,7.641055957E0
1.690561220E-1,3.998316765E0,3.794809580E0,5.382464886E0,7.704417236E0
1.710690880E-1,4.000710964E0,3.818751812E0,5.504569054E0,7.803129762E0
1.730819880E-1,4.201824188E0,3.904942989E0,5.854122639E0,8.196014771E0
1.750948210E-1,4.596867085E0,3.912125587E0,6.155791759E0,8.621466568E0
1.771075870E-1,4.848258495E0,3.881000996E0,6.249165535E0,8.810212770E0
1.791202870E-1,5.346551895E0,3.864241600E0,6.313809395E0,9.131383761E0
1.811329870E-1,5.607519627E0,3.907337189E0,6.471826553E0,9.412550090E0
1.831456870E-1,5.710470200E0,3.916913986E0,6.589142323E0,9.558686187E0
1.851583870E-1,5.918766022E0,3.878606796E0,6.828562737E0,9.833852294E0
1.871710200E-1,6.076783180E0,3.770867586E0,7.056011677E0,1.004659330E1
1.891836860E-1,6.136638165E0,3.730166197E0,7.161356449E0,1.014186837E1
1.911963860E-1,6.282684326E0,3.696647406E0,7.494150639E0,1.045464577E1
1.932091520E-1,6.316203594E0,3.672705412E0,7.618649006E0,1.055589909E1
1.952219180E-1,6.371270180E0,3.588908434E0,7.841310024E0,1.072191636E1
1.972346840E-1,6.364087582E0,3.543418407E0,7.941866398E0,1.077639395E1
1.992474840E-1,6.309020519E0,3.438073635E0,8.109460831E0,1.083454868E1
2.012602840E-1,6.206069946E0,3.335123062E0,8.212410927E0,1.082044561E1
2.032731170E-1,6.131849766E0,3.256114244E0,8.236352921E0,1.077215721E1
2.052859830E-1,5.933131218E0,3.002328873E0,8.245929718E0,1.059298738E1
2.072988160E-1,5.662586212E0,2.659958124E0,8.131008148E0,1.025931544E1
2.093116160E-1,5.576395035E0,2.533065319E0,8.061576843E0,1.012430850E1
2.113243820E-1,5.509357452E0,2.394201756E0,7.901165009E0,9.925403270E0
2.142643820E-1,5.380070686E0,2.224213362E0,7.697657585E0,9.651228832E0
2.161980960E-1,5.289090633E0,2.171540976E0,7.680898190E0,9.575294613E0
2.182100960E-1,5.083189487E0,2.114080191E0,7.700051785E0,9.465672079E0
2.202230960E-1,4.869806290E0,2.102109194E0,7.783848763E0,9.419245082E0
2.222360960E-1,4.747702122E0,2.106897593E0,7.841310024E0,9.405627879E0
2.242487620E-1,4.522646904E0,2.078166962E0,7.946654797E0,9.376696401E0
2.262617620E-1,4.319139957E0,1.972822189E0,7.989750385E0,9.294251373E0
2.282745620E-1,4.213795185E0,1.865083098E0,7.951443195E0,9.190215107E0
2.302872280E-1,4.098873138E0,1.747767210E0,7.798214436E0,8.981514327E0
2.322997990E-1,4.046200752E0,1.819593310E0,7.623437405E0,8.820400116E0
2.343121740E-1,4.036623955E0,1.884236693E0,7.522881031E0,8.742906832E0
2.363247290E-1,3.962403774E0,2.054224968E0,7.403171062E0,8.644502627E0
2.383372290E-1,3.799597979E0,2.202665567E0,7.328950882E0,8.544132573E0
2.403498650E-1,3.569754839E0,2.240972757E0,7.254730225E0,8.390245476E0
2.423624480E-1,3.447650433E0,2.269703150E0,7.214028835E0,8.311441387E0
2.443749860E-1,3.277662039E0,2.274491549E0,7.034463882E0,8.087030503E0
2.463874860E-1,3.268085241E0,2.286462545E0,6.893206120E0,7.963955219E0
2.483999520E-1,3.284844637E0,2.257732153E0,6.854898930E0,7.929514367E0
2.504124520E-1,3.332728863E0,2.145204782E0,6.766313076E0,7.841682082E0
2.524250400E-1,3.383007050E0,2.080561161E0,6.699275494E0,7.788052618E0
2.544376510E-1,3.447650433E0,2.097320795E0,6.692092896E0,7.814675639E0
2.564502290E-1,3.622427225E0,2.173935175E0,6.725611687E0,7.942406796E0
2.584627790E-1,3.715801001E0,2.240972757E0,6.859687328E0,8.116923445E0
2.604936830E-1,3.744531393E0,2.296039343E0,7.096713066E0,8.346055857E0
2.625238190E-1,3.770867586E0,2.322375536E0,7.242759228E0,8.489430588E0
2.645532100E-1,3.871424198E0,2.334346771E0,7.518092632E0,8.772617454E0
2.665818760E-1,3.967192173E0,2.322375536E0,7.767089367E0,9.025503814E0
2.686099560E-1,4.022258759E0,2.286462545E0,8.047211647E0,9.282461515E0
2.706374170E-1,4.046200752E0,2.169146776E0,8.174103737E0,9.375121875E0
2.726643790E-1,4.129997730E0,2.061407566E0,8.447042465E0,9.625944567E0
2.746908430E-1,4.264073372E0,1.989581585E0,8.710405350E0,9.900096866E0
2.767168430E-1,4.302380562E0,1.972822189E0,8.839692116E0,1.002709642E1
2.787424090E-1,4.331110954E0,1.889025092E0,9.098265648E0,1.025209128E1
2.807680090E-1,4.304774761E0,1.774103403E0,9.373599052E0,1.046627383E1
2.827935750E-1,4.278438568E0,1.714248419E0,9.514857292E0,1.057242609E1
2.848192080E-1,4.244919777E0,1.570596337E0,9.783007622E0,1.077930215E1
2.868448410E-1,4.292803764E0,1.412579060E0,1.004636955E1,1.101603762E1
2.888705410E-1,4.321534157E0,1.331176162E0,1.015410900E1,1.111546747E1
2.908962740E-1,4.338293552E0,1.127668977E0,1.037676907E1,1.130352885E1
2.929220400E-1,4.491522312E0,9.983820915E-1,1.069040966E1,1.163853076E1
2.949761730E-1,4.733336926E0,9.864110947E-1,1.094180107E1,1.196246195E1
2.970303060E-1,4.985027313E0,1.022324085E0,1.108545303E1,1.219766014E1
2.990844720E-1,5.135861874E0,1.022324085E0,1.122910500E1,1.239011795E1
3.011386050E-1,5.200505257E0,1.015141487E0,1.130571938E1,1.248579424E1
3.031927380E-1,5.377676487E0,9.672574997E-1,1.140627575E1,1.264745500E1
3.052468380E-1,5.535693645E0,9.169792533E-1,1.140627575E1,1.271172221E1
3.073009380E-1,5.660192013E0,9.074024558E-1,1.140867043E1,1.276788603E1
3.093550380E-1,6.237194538E0,8.810662031E-1,1.140627575E1,1.303004220E1
3.114091040E-1,7.065588474E0,9.074024558E-1,1.132966137E1,1.338309181E1
3.134631370E-1,7.769483566E0,1.077390790E0,1.133444977E1,1.378388180E1
3.155179370E-1,8.126219749E0,1.199495077E0,1.145655441E1,1.409705199E1
3.175728370E-1,8.921094894E0,1.479616642E0,1.189708710E1,1.494375726E1
3.196278030E-1,9.651326180E0,1.642422318E0,1.256267548E1,1.592691003E1
3.216699360E-1,1.002721596E1,2.030282974E0,1.297926712E1,1.652659928E1
3.237120360E-1,1.078617764E1,2.509123325E0,1.397286034E1,1.782913778E1
3.257541360E-1,1.160260105E1,3.004723072E0,1.491647530E1,1.913504500E1
3.277962690E-1,1.199524975E1,3.263296843E0,1.530673027E1,1.971880104E1
3.298383690E-1,1.274224091E1,3.744531393E0,1.589091492E1,2.071007956E1
3.318805020E-1,1.337909794E1,4.137180328E0,1.625962257E1,2.145907381E1
3.339226020E-1,1.362809563E1,4.288015366E0,1.637693787E1,2.173283599E1
3.359646350E-1,1.403510952E1,4.469974518E0,1.656608009E1,2.216754342E1
3.380066350E-1,1.429128933E1,4.544194698E0,1.673846245E1,2.247369087E1
3.400485680E-1,1.440142250E1,4.534617901E0,1.683423042E1,2.261316085E1
3.420905340E-1,1.464084244E1,4.501099110E0,1.702337265E1,2.289998639E1
3.441325670E-1,1.502182007E1,4.443638325E0,1.724842834E1,2.330041373E1
3.461745670E-1,1.552699661E1,4.436455727E0,1.739208031E1,2.373297749E1
3.482165330E-1,1.582148361E1,4.477157116E0,1.778233528E1,2.421932550E1
3.502584660E-1,1.648467636E1,4.606443882E0,1.829708862E1,2.505488639E1
3.523004320E-1,1.719814873E1,4.831499100E0,1.891958046E1,2.602057317E1
3.543423650E-1,1.753333855E1,4.975450516E0,1.926913452E1,2.652305815E1
3.563559980E-1,1.815822411E1,5.289090633E0,2.000894165E1,2.753276827E1
3.583695980E-1,1.869931412E1,5.585971832E0,2.070804977E1,2.845506555E1
3.603831980E-1,1.892197418E1,5.720046997E0,2.103126717E1,2.886302554E1
3.623967980E-1,1.933377647E1,5.885247231E0,2.156038475E1,2.955133226E1
3.644104310E-1,1.959713936E1,5.976226807E0,2.191472626E1,3.000030641E1
3.664241310E-1,1.968093681E1,5.981015205E0,2.203443718E1,3.014346096E1
3.684378970E-1,1.979106903E1,5.952284813E0,2.214456940E1,3.029023047E1
3.704517300E-1,1.975755119E1,5.902006626E0,2.209668541E1,3.022346799E1
3.724656300E-1,1.968093681E1,5.858911037E0,2.201767731E1,3.010721220E1
3.744795630E-1,1.945348740E1,5.712864399E0,2.198894691E1,2.990967699E1
3.764926630E-1,1.928589249E1,5.708076000E0,2.203922462E1,2.983714468E1
3.785056630E-1,1.889563751E1,5.641038418E0,2.206556129E1,2.959316520E1
3.805186290E-1,1.872565079E1,5.554847240E0,2.199612999E1,2.941659497E1
3.825316290E-1,1.841201019E1,5.293879032E0,2.174713326E1,2.898215105E1
3.845446290E-1,1.805287933E1,4.927566528E0,2.148377037E1,2.849104690E1
3.865576950E-1,1.784458351E1,4.754884720E0,2.134490585E1,2.822486661E1
3.885707950E-1,1.737771416E1,4.417302132E0,2.097380638E1,2.759344237E1
3.905839280E-1,1.684141350E1,4.108449936E0,2.056439781E1,2.689622700E1
3.925971280E-1,1.657086945E1,3.979163170E0,2.034412956E1,2.653885946E1
3.946103610E-1,1.608245087E1,3.754108191E0,1.993951035E1,2.589058955E1
3.966236940E-1,1.573529243E1,3.610456228E0,1.948940086E1,2.530753975E1
3.986370600E-1,1.563234138E1,3.548206806E0,1.923322105E1,2.503750508E1
4.006505260E-1,1.557248688E1,3.457227230E0,1.872086143E1,2.459523166E1
4.026640260E-1,1.563712978E1,3.392583847E0,1.819653130E1,2.423103803E1
4.046775920E-1,1.579514694E1,3.378218651E0,1.765544128E1,2.392934673E1
4.066911920E-1,1.588373280E1,3.392583847E0,1.740644455E1,2.380728680E1
4.087048920E-1,1.607048035E1,3.483563423E0,1.689408493E1,2.357553092E1
4.107186250E-1,1.623328590E1,3.648763418E0,1.643679237E1,2.338805655E1
4.127323580E-1,1.629314041E1,3.739742994E0,1.623807526E1,2.330508936E1
4.147461580E-1,1.639609146E1,3.964797974E0,1.587654972E1,2.316497937E1
4.167598910E-1,1.642242813E1,4.182670593E0,1.554615021E1,2.299725343E1
4.187735910E-1,1.640088081E1,4.283226967E0,1.540728664E1,2.290675460E1
4.207872910E-1,1.629074669E1,4.393360138E0,1.513195324E1,2.266420195E1
4.228009910E-1,1.607287407E1,4.378994942E0,1.482549572E1,2.230040809E1
4.248147240E-1,1.575923443E1,4.309563160E0,1.465041924E1,2.194448879E1
4.268284570E-1,1.556530380E1,4.082113743E0,1.429368305E1,2.152328298E1
4.288421570E-1,1.513674164E1,3.699041605E0,1.389385128E1,2.087685224E1
4.308558570E-1,1.464802551E1,3.229778051E0,1.345810699E1,2.015233886E1
4.328695230E-1,1.438945103E1,2.997540474E0,1.322108078E1,1.976963648E1
4.348831890E-1,1.355148125E1,2.236184359E0,1.267520332E1,1.868967479E1
4.368985550E-1,1.327854156E1,1.972822189E0,1.253394508E1,1.836604129E1
4.389140210E-1,1.303193951E1,1.695094824E0,1.241902351E1,1.808139759E1
4.409295540E-1,1.270393372E1,1.086967587E0,1.227537155E1,1.769904453E1
4.429450870E-1,1.215326691E1,5.698199868E-1,1.215326691E1,1.719675806E1
4.449606530E-1,1.171991634E1,3.615244627E-1,1.209101772E1,1.684279812E1
4.469761860E-1,1.076463032E1,2.633621916E-2,1.192102909E1,1.606203269E1
4.489917190E-1,1.002961063E1,-2.753331959E-1,1.162654305E1,1.535725890E1
4.510072190E-1,9.404723167E0,-4.285621047E-1,1.122671127E1,1.465167326E1
4.530226520E-1,9.047987938E0,-6.560112834E-1,1.106151104E1,1.430571435E1
4.550380850E-1,8.370428085E0,-8.020575643E-1,1.075265884E1,1.365016611E1
4.570818180E-1,7.855675220E0,-1.065419793E0,1.050845051E1,1.316336904E1
4.591255840E-1,7.309797287E0,-1.434126854E0,1.030733776E1,1.271735302E1
4.611693840E-1,6.797437668E0,-1.836352706E0,9.976937294E0,1.221133195E1
4.632130840E-1,6.579565525E0,-2.032677174E0,9.792584419E0,1.197151488E1
4.652567500E-1,6.091148376E0,-2.406172752E0,9.500492096E0,1.153911201E1
4.673003830E-1,5.504569054E0,-2.786850691E0,9.232340813E0,1.110418543E1
4.693439830E-1,5.205293655E0,-2.961627483E0,9.110237122E0,1.090241899E1
4.713875830E-1,4.491522312E0,-3.253720045E0,8.777442932E0,1.038286912E1
4.734311830E-1,3.555389643E0,-3.471592426E0,8.245929718E0,9.627466250E0
4.754747160E-1,2.588132143E0,-3.596091032E0,7.345710278E0,8.578447306E0
4.775183490E-1,2.171540976E0,-3.653551817E0,6.881235123E0,8.087980459E0
4.795620490E-1,1.489193439E0,-3.766079187E0,5.985803604E0,7.227094460E0
4.816057820E-1,8.714894056E-1,-3.857059002E0,5.214870453E0,6.544560472E0
4.836495150E-1,6.009446383E-1,-3.888183594E0,4.874594688E0,6.264246123E0
4.856932480E-1,1.699883193E-1,-3.974374771E0,4.223371983E0,5.801846409E0
4.877369810E-1,-1.436520964E-1,-4.098873138E0,3.888183594E0,5.651492598E0
4.897807140E-1,-2.873041928E-1,-4.149151325E0,3.818751812E0,5.646314357E0
4.918243800E-1,-5.674257874E-1,-4.256890774E0,3.758896589E0,5.707223025E0
4.938680130E-1,-9.481038451E-1,-4.376600742E0,3.517082214E0,5.694155096E0
4.959115790E-1,-1.340752959E0,-4.527435303E0,3.313575268E0,5.768454730E0
4.979534120E-1,-1.544260144E0,-4.616020679E0,3.193865061E0,5.821783261E0
4.999950780E-1,-2.015917778E0,-4.776432514E0,2.940079689E0,5.960058777E0
5.020366110E-1,-2.535459518E0,-4.850652695E0,2.844311714E0,6.168265207E0
5.040936110E-1,-3.050212860E0,-5.092766285E0,2.633621931E0,6.494307615E0
5.061506440E-1,-3.323152065E0,-5.162198067E0,2.580949545E0,6.659799478E0
5.082076440E-1,-3.854664803E0,-5.313032627E0,2.454056740E0,7.007792157E0
5.102646440E-1,-4.390965939E0,-5.475838661E0,2.365471363E0,7.406810764E0
5.123216770E-1,-4.668693542E0,-5.557241440E0,2.322375536E0,7.620568217E0
5.143787430E-1,-5.174169064E0,-5.698499203E0,2.236184359E0,8.015325268E0
5.164358090E-1,-5.700893402E0,-5.856516838E0,2.142810583E0,8.449296554E0
5.184645420E-1,-5.947496414E0,-5.930737019E0,2.087743998E0,8.654769216E0
5.204932420E-1,-6.433519363E0,-6.081571579E0,1.951274395E0,9.065492597E0
5.225218750E-1,-6.948272705E0,-6.230011940E0,1.821987510E0,9.508479418E0
5.245505080E-1,-7.472602844E0,-6.292261124E0,1.735796213E0,9.921962095E0
5.265790740E-1,-7.721599579E0,-6.428730965E0,1.525106430E0,1.016256028E1
5.286076740E-1,-8.198045731E0,-6.555623531E0,1.295263171E0,1.057647675E1
5.306362400E-1,-8.609848976E0,-6.641814709E0,1.048660398E0,1.092441718E1
5.326648060E-1,-8.803778648E0,-6.687304497E0,9.433154464E-1,1.109578316E1
5.346933390E-1,-9.134179115E0,-6.778284073E0,7.948749661E-1,1.140220107E1
5.367219050E-1,-9.344868660E0,-6.845322132E0,7.350199223E-1,1.160712108E1
5.396559050E-1,-9.593865395E0,-6.890811920E0,7.781155705E-1,1.183769428E1
5.418540960E-1,-9.811738014E0,-6.943484306E0,9.385270476E-1,1.205665833E1
5.438670960E-1,-9.936236382E0,-6.950666904E0,1.041477680E0,1.217067129E1
5.458810960E-1,-1.025466537E1,-6.902782917E0,1.271321058E0,1.242669832E1
5.478950960E-1,-1.058027649E1,-6.797437668E0,1.426944256E0,1.265636517E1
5.499087620E-1,-1.084842682E1,-6.670545101E0,1.484405041E0,1.282138817E1
5.519225120E-1,-1.097531986E1,-6.603507519E0,1.493981838E0,1.289557829E1
5.539363120E-1,-1.123389339E1,-6.538864136E0,1.551442742E0,1.309061036E1
5.559499780E-1,-1.148289108E1,-6.519710541E0,1.604115129E0,1.330175171E1
5.579635490E-1,-1.167203236E1,-6.526893139E0,1.678335428E0,1.347788868E1
5.599796740E-1,-1.174625301E1,-6.567594528E0,1.723825216E0,1.356758384E1
5.619957850E-1,-1.188751030E1,-6.656179905E0,1.800439715E0,1.374260584E1
5.640116850E-1,-1.193060589E1,-6.653785706E0,1.783680320E0,1.377656476E1
5.660273210E-1,-1.194497108E1,-6.419154167E0,1.637633920E0,1.365905265E1
5.680427370E-1,-1.196412563E1,-5.940313816E0,1.455674648E0,1.343676371E1
5.700580440E-1,-1.207665253E1,-5.667374611E0,1.367089152E0,1.341020522E1
5.720731860E-1,-1.216284370E1,-5.229235649E0,1.101332784E0,1.328505199E1
5.740881860E-1,-1.232804394E1,-4.927566528E0,6.440402865E-1,1.329196626E1
5.761031230E-1,-1.240705204E1,-4.623203278E0,-2.633621916E-2,1.324045477E1
5.781180050E-1,-1.240465832E1,-4.441244125E0,-3.902548850E-1,1.318152101E1
5.801326160E-1,-1.233522606E1,-4.031835556E0,-1.110909581E0,1.302488464E1
5.821470890E-1,-1.221072769E1,-3.641580820E0,-1.802833915E0,1.286907890E1
5.841614390E-1,-1.215805531E1,-3.483563423E0,-2.114080191E0,1.282274768E1
5.861757240E-1,-1.207904720E1,-3.193865061E0,-2.643198729E0,1.277069516E1
5.881899960E-1,-1.202158642E1,-2.983175278E0,-3.043030262E0,1.275452500E1
5.902042130E-1,-1.202158642E1,-2.896984100E0,-3.191470861E0,1.277092570E1
5.922183790E-1,-1.204074001E1,-2.813186884E0,-3.426102638E0,1.283088539E1
5.942324990E-1,-1.205271053E1,-2.822763920E0,-3.586514235E0,1.288793667E1
5.962465750E-1,-1.205749893E1,-2.865859509E0,-3.653551817E0,1.292071484E1
5.982606120E-1,-1.208862400E1,-2.980781078E0,-3.766079187E0,1.300781452E1
6.002745760E-1,-1.210059452E1,-3.148375273E0,-3.840299606E0,1.307992950E1
6.022884380E-1,-1.210777760E1,-3.339911461E0,-3.909731388E0,1.315443980E1
6.043022710E-1,-1.208383560E1,-3.430891037E0,-3.926490784E0,1.316082923E1
6.063161040E-1,-1.206947041E1,-3.564966440E0,-3.931279182E0,1.318469027E1
6.083299370E-1,-1.206468201E1,-3.658340216E0,-3.936067581E0,1.320729469E1
6.103437700E-1,-1.204552841E1,-3.699041605E0,-3.921702385E0,1.319687134E1
6.123576030E-1,-1.199285603E1,-3.761290789E0,-3.895366192E0,1.315863906E1
6.143714030E-1,-1.187075138E1,-3.828328609E0,-3.854664803E0,1.305485653E1
6.163852030E-1,-1.177977180E1,-3.842693806E0,-3.835511208E0,1.297075424E1
6.183990030E-1,-1.150683308E1,-3.938461781E0,-3.799597979E0,1.274188500E1
6.204139030E-1,-1.143500614E1,-3.979163170E0,-3.794809580E0,1.268832868E1
6.224269030E-1,-1.135599804E1,-4.031835556E0,-3.818751812E0,1.264109389E1
6.244399030E-1,-1.127220058E1,-4.161122322E0,-3.912125587E0,1.263654113E1
6.264529030E-1,-1.129374886E1,-4.326322556E0,-4.101267338E0,1.277052167E1
6.284659030E-1,-1.138712215E1,-4.529829502E0,-4.410119534E0,1.302440250E1
6.304788690E-1,-1.143740082E1,-4.642356873E0,-4.604049683E0,1.317432686E1
6.324918690E-1,-1.151640987E1,-4.865017891E0,-5.078401089E0,1.349393394E1
6.345048020E-1,-1.149725628E1,-5.056853294E0,-5.631461620E0,1.376488384E1
6.365177350E-1,-1.147331429E1,-5.133467674E0,-5.916371822E0,1.389218797E1
6.385306350E-1,-1.135360336E1,-5.255571842E0,-6.455067158E0,1.407811197E1
6.405436350E-1,-1.114770222E1,-5.392041683E0,-6.926724911E0,1.418890046E1
6.425566680E-1,-1.102799225E1,-5.480627060E0,-7.108684063E0,1.421925719E1
6.445697340E-1,-1.078617764E1,-5.696105003E0,-7.400776863E0,1.426740125E1
6.465828340E-1,-1.059224796E1,-5.945102215E0,-7.556399822E0,1.430521358E1
6.485959340E-1,-1.050845051E1,-6.091148376E0,-7.601889610E0,1.432893388E1
6.506090000E-1,-1.029057789E1,-6.411971569E0,-7.573159218E0,1.429552773E1
6.526221000E-1,-1.000566864E1,-6.797437668E0,-7.446266651E0,1.420441660E1
6.546352660E-1,-9.613018990E0,-7.024887085E0,-7.204452038E0,1.391629627E1
6.566484320E-1,-9.375992775E0,-7.460631847E0,-7.079953671E0,1.391747147E1
6.586616320E-1,-8.825326920E0,-7.913136005E0,-6.826168537E0,1.367847556E1
6.606748320E-1,-8.157344818E0,-8.391976357E0,-6.555623531E0,1.341431107E1
6.626880980E-1,-7.776666164E0,-8.629002571E0,-6.402394772E0,1.326374309E1
6.647021310E-1,-6.996156693E0,-9.074323654E0,-5.983409405E0,1.292635859E1
6.667153640E-1,-6.182127953E0,-9.478943825E0,-5.492598057E0,1.257925735E1
6.687286300E-1,-5.763142586E0,-9.687239647E0,-5.222053051E0,1.242281218E1
6.707418630E-1,-4.903624535E0,-1.005594635E1,-4.594472885E0,1.209449344E1
6.727550290E-1,-4.005499363E0,-1.040789413E1,-3.895366192E0,1.181279659E1
6.747682950E-1,-3.538630009E0,-1.056351757E1,-3.562572241E0,1.169622703E1
6.767815610E-1,-2.504334927E0,-1.080293751E1,-2.932897091E0,1.147070345E1
6.787948610E-1,-1.276109457E0,-1.098489666E1,-2.365471363E0,1.130892854E1
6.808063610E-1,1.651999205E-1,-1.104235744E1,-2.126051188E0,1.124637909E1
6.828196610E-1,9.624691010E-1,-1.109502983E1,-1.723825216E0,1.126932150E1
6.848328940E-1,2.726995707E0,-1.104475212E1,-1.441309452E0,1.146736360E1
6.868461600E-1,4.647145271E0,-1.090109921E1,-1.297657371E0,1.192115085E1
6.888593930E-1,5.638644218E0,-1.078857231E1,-1.264138460E0,1.223869467E1
6.908726260E-1,7.700051785E0,-1.046296024E1,-1.230619669E0,1.304909036E1
6.928858260E-1,9.763854027E0,-1.006312943E1,-1.221042871E0,1.407445789E1
6.948990920E-1,1.081730270E1,-9.811738014E0,-1.213860273E0,1.465461352E1
6.969123250E-1,1.286195087E1,-9.215581894E0,-1.146822572E0,1.586417133E1
6.989255580E-1,1.505055046E1,-8.432677269E0,-1.027112484E0,1.728247885E1
7.009671240E-1,1.708562279E1,-7.649773598E0,-8.236053586E-1,1.873808603E1
7.030086900E-1,1.904647255E1,-6.833351135E0,-5.171475410E-1,2.024179453E1
7.050502560E-1,2.094746971E1,-6.411971569E0,-1.005564705E-1,2.190707599E1
7.070918220E-1,2.190036201E1,-5.581183434E0,1.508347094E-1,2.260084547E1
7.091333550E-1,2.380854034E1,-4.740519524E0,7.972691655E-1,2.428898427E1
7.111749550E-1,2.569786453E1,-3.892971992E0,1.561019540E0,2.603790035E1
7.132165210E-1,2.662681580E1,-3.481169224E0,1.984793186E0,2.692666453E1
7.152580540E-1,2.830754471E1,-2.631227732E0,2.940079689E0,2.858119164E1
7.172995870E-1,2.973927689E1,-1.783680320E0,4.077325344E0,3.007042878E1
7.193410530E-1,3.037613487E1,-1.374271750E0,4.697423935E0,3.076790510E1
7.213825860E-1,3.152535248E1,-6.584054828E-1,6.033687592E0,3.210431019E1
7.234241520E-1,3.254528046E1,-5.027823523E-2,7.410353661E0,3.337830357E1
7.254649520E-1,3.304566956E1,1.987187415E-1,8.097489357E0,3.402389013E1
7.275064850E-1,3.396983337E1,6.488286853E-1,9.462183952E0,3.526901591E1
7.295479850E-1,3.478416061E1,1.036689281E0,1.082448483E1,3.644423172E1
7.315895180E-1,3.549044800E1,1.223437071E0,1.149486160E1,3.732560168E1
7.336310510E-1,3.581605911E1,1.618480325E0,1.282603741E1,3.807777310E1
7.356725170E-1,3.644094849E1,2.039859772E0,1.412369537E1,3.913543823E1
7.377140170E-1,3.699400711E1,2.528276920E0,1.533067226E1,4.012453437E1
7.397554830E-1,3.744411850E1,3.057395458E0,1.638890839E1,4.098787620E1
7.417969160E-1,3.763565445E1,3.327940464E0,1.689887428E1,4.138948690E1
7.438383160E-1,3.790859222E1,3.869029999E0,1.784937286E1,4.207886488E1
7.458797160E-1,3.795647812E1,4.115632534E0,1.830187607E1,4.233900483E1
7.479334490E-1,3.786071014E1,4.565742493E0,1.913745308E1,4.266756951E1
7.499873150E-1,3.751115417E1,4.881777287E0,1.977670479E1,4.268531936E1
7.520412150E-1,3.696288300E1,5.064035892E0,2.026033401E1,4.245444986E1
7.540951480E-1,3.663966751E1,5.114314079E0,2.044947433E1,4.227058604E1
7.561491140E-1,3.592858887E1,5.090372086E0,2.077029800E1,4.181125046E1
7.582030800E-1,3.511455917E1,5.011363506E0,2.103366089E1,4.123785786E1
7.602570460E-1,3.421403885E1,4.932354927E0,2.125871468E1,4.058154173E1
7.622826790E-1,3.371844101E1,4.718971729E0,2.135208893E1,4.018847671E1
7.643083450E-1,3.269372177E1,4.450820923E0,2.151250076E1,3.938879205E1
7.663340110E-1,3.161393738E1,4.137180328E0,2.165854645E1,3.854412967E1
7.683596110E-1,3.105130005E1,3.971980572E0,2.172319031E1,3.810323951E1
7.703852440E-1,2.992123604E1,3.677493811E0,2.182614136E1,3.721807052E1
7.724108100E-1,2.879356766E1,3.383007050E0,2.186444855E1,3.631209696E1
7.744364100E-1,2.823811340E1,3.246537447E0,2.187163162E1,3.586501532E1
7.764619760E-1,2.717987633E1,2.995146275E0,2.183332443E1,3.499157947E1
7.784875090E-1,2.617910004E1,2.772485495E0,2.169445992E1,3.411277687E1
7.805130420E-1,2.570025826E1,2.674323320E0,2.159390450E1,3.367420364E1
7.834460420E-1,2.442863846E1,2.432508945E0,2.121083069E1,3.244340943E1
7.855980960E-1,2.371516609E1,2.339135170E0,2.090916252E1,3.170289787E1
7.876100960E-1,2.338955498E1,2.310404539E0,2.075593376E1,3.135630778E1
7.896220960E-1,2.282452393E1,2.260126352E0,2.039919662E1,3.069518344E1
7.916350960E-1,2.230019379E1,2.248155355E0,2.000415421E1,3.004195451E1
7.936484290E-1,2.205837822E1,2.250549555E0,1.980304146E1,2.972873146E1
7.956616790E-1,2.161545181E1,2.252943754E0,1.933138275E1,2.908618008E1
7.976748790E-1,2.120843697E1,2.298433542E0,1.879268837E1,2.842966288E1
7.996882120E-1,2.101929474E1,2.346317768E0,1.848622894E1,2.809015164E1
8.017014970E-1,2.047581100E1,2.446874142E0,1.751178932E1,2.705381294E1
8.037173720E-1,2.029624557E1,2.485181332E0,1.715984154E1,2.669407935E1
8.057330380E-1,2.012146950E1,2.521094322E0,1.681028938E1,2.634037358E1
8.077484380E-1,1.979585838E1,2.600103140E0,1.611357689E1,2.565704398E1
8.097636190E-1,1.944391060E1,2.652775526E0,1.542883396E1,2.496300853E1
8.117786190E-1,1.906562614E1,2.712630510E0,1.473930454E1,2.425084664E1
8.137934650E-1,1.884535980E1,2.726995707E0,1.438945103E1,2.386714043E1
8.158082500E-1,1.838327980E1,2.750937700E0,1.368795013E1,2.308403373E1
8.178229830E-1,1.786134338E1,2.738966703E0,1.301039124E1,2.226656251E1
8.198376080E-1,1.760516357E1,2.731784105E0,1.267280865E1,2.186331420E1
8.218521370E-1,1.709519958E1,2.695871115E0,1.197370243E1,2.104478842E1
8.238664140E-1,1.659720421E1,2.633621931E0,1.130093098E1,2.025127633E1
8.258805710E-1,1.635778427E1,2.602497339E0,1.098250294E1,1.987373818E1
8.278945710E-1,1.583345413E1,2.511517525E0,1.038395214E1,1.910058774E1
8.299085710E-1,1.529954720E1,2.415749550E0,9.826103210E0,1.834296308E1
8.319224800E-1,1.503139687E1,2.365471363E0,9.553164482E0,1.796667187E1
8.339363490E-1,1.445648956E1,2.250549555E0,9.033622742E0,1.719480746E1
8.359501820E-1,1.386751556E1,2.128445387E0,8.514080048E0,1.641121040E1
8.379639420E-1,1.331445503E1,2.063801765E0,7.999327183E0,1.566918077E1
8.399776340E-1,1.304391003E1,1.910573006E0,7.750329971E0,1.529253062E1
8.419912630E-1,1.248845577E1,1.778891921E0,7.273883820E0,1.456143433E1
8.440049050E-1,1.197130775E1,1.647210717E0,6.816591740E0,1.387412828E1
8.460185250E-1,1.170794582E1,1.582567334E0,6.589142323E0,1.352764988E1
8.480320910E-1,1.119319248E1,1.453280449E0,6.165368557E0,1.286123444E1
8.500456570E-1,1.073589993E1,1.352723956E0,5.775113583E0,1.226545336E1
8.520591900E-1,1.052999878E1,1.312022567E0,5.583577633E0,1.199077215E1
8.540726560E-1,1.013016701E1,1.242590666E0,5.200505257E0,1.145467460E1
8.560861220E-1,9.742305756E0,1.185129881E0,4.853046894E0,1.094847562E1
8.580996220E-1,9.560346603E0,1.154005170E0,4.675876141E0,1.070494151E1
8.601130880E-1,9.249100685E0,1.079784989E0,4.355052948E0,1.027999442E1
8.621265540E-1,8.976161003E0,1.029506683E0,4.046200752E0,9.899651049E0
8.641410540E-1,8.698433876E0,9.864110947E-1,3.763684988E0,9.528960249E0
8.661536870E-1,8.590695381E0,9.720458984E-1,3.627215624E0,9.375586037E0
8.681663530E-1,8.411129951E0,9.888052940E-1,3.363853455E0,9.112647970E0
8.701789860E-1,8.248324394E0,9.911994934E-1,3.138798475E0,8.880843857E0
8.721916190E-1,8.176498413E0,9.935936928E-1,3.038241863E0,8.779138246E0
8.742042190E-1,8.061576843E0,1.003170490E0,2.894589901E0,8.624037507E0
8.762167850E-1,7.961019993E0,9.911994934E-1,2.810792685E0,8.500639463E0
8.782293180E-1,7.910741806E0,9.888052940E-1,2.777273893E0,8.442204813E0
8.802418510E-1,7.819762230E0,9.864110947E-1,2.729389906E0,8.340938643E0
8.822543510E-1,7.738358974E0,1.003170490E0,2.750937700E0,8.273826737E0
8.842669170E-1,7.695263386E0,1.027112484E0,2.762908697E0,8.240491678E0
8.862794830E-1,7.616254807E0,1.058237195E0,2.806004286E0,8.185405506E0
8.882920830E-1,7.530063629E0,1.122880578E0,2.829946518E0,8.122272856E0
8.903046490E-1,7.510910034E0,1.142034173E0,2.851494312E0,8.114741611E0
8.923172150E-1,7.482179642E0,1.175553083E0,2.873042107E0,8.100574559E0
8.943298150E-1,7.415142059E0,1.201889277E0,2.873042107E0,8.042589169E0
8.963424150E-1,7.355287075E0,1.209071875E0,2.849100113E0,7.979941993E0
8.983550150E-1,7.314585686E0,1.209071875E0,2.832340717E0,7.936445835E0
9.003676480E-1,7.254730225E0,1.216254473E0,2.798821688E0,7.870437625E0
9.023802810E-1,7.197269440E0,1.180341482E0,2.748543501E0,7.794125017E0
9.043928140E-1,7.158962250E0,1.177947283E0,2.717418909E0,7.747429627E0
9.064052800E-1,7.123049259E0,1.180341482E0,2.674323320E0,7.699548168E0
9.084185800E-1,7.063194275E0,1.175553083E0,2.643198729E0,7.632636369E0
9.104311130E-1,7.051223278E0,1.168370485E0,2.626439333E0,7.614658422E0
9.124436130E-1,7.032069683E0,1.185129881E0,2.592920542E0,7.588001964E0
9.144561130E-1,6.996156693E0,1.213860273E0,2.564189911E0,7.549485753E0
9.164685790E-1,6.984185696E0,1.221042871E0,2.545036316E0,7.533060824E0
9.184810120E-1,6.969820499E0,1.247379065E0,2.516305923E0,7.514396039E0
9.204934120E-1,6.950666904E0,1.259350061E0,2.504334927E0,7.494626503E0
9.225057780E-1,6.926724911E0,1.285686255E0,2.497152328E0,7.474508471E0
9.245163440E-1,6.907571316E0,1.283292055E0,2.506729126E0,7.459562379E0
9.265287100E-1,6.883629322E0,1.261744261E0,2.528276920E0,7.441003656E0
9.285409760E-1,6.890811920E0,1.264138460E0,2.592920542E0,7.470245772E0
9.305532420E-1,6.888417721E0,1.266532660E0,2.621650934E0,7.478466239E0
9.325654750E-1,6.919542313E0,1.244984865E0,2.681505919E0,7.524661263E0
9.345777080E-1,6.953061104E0,1.225831270E0,2.731784105E0,7.570360983E0
9.365899080E-1,6.974608898E0,1.230619669E0,2.746149302E0,7.596112824E0
9.386020740E-1,7.010521889E0,1.266532660E0,2.784456491E0,7.648837826E0
9.406142070E-1,7.046434879E0,1.288080573E0,2.846705914E0,7.708121083E0
9.426263400E-1,7.067982674E0,1.295263171E0,2.887407303E0,7.744107869E0
9.455593400E-1,7.067982674E0,1.268926859E0,2.992752075E0,7.779660624E0
9.475410960E-1,7.041646481E0,1.242590666E0,3.031059265E0,7.766346438E0
9.495530960E-1,7.010521889E0,1.228225470E0,3.055001259E0,7.745255816E0
9.515660960E-1,6.924330711E0,1.158793569E0,3.086126089E0,7.668985107E0
9.535790960E-1,6.857293129E0,1.065419793E0,3.114856482E0,7.606570797E0
9.555920960E-1,6.814197540E0,1.034295082E0,3.134010077E0,7.571332353E0
9.576048460E-1,6.720823288E0,9.744400978E-1,3.167528868E0,7.493479719E0
9.596176460E-1,6.637026310E0,8.882488012E-1,3.198653460E0,7.420949274E0
9.616303120E-1,6.596324921E0,8.571242094E-1,3.210624456E0,7.386086499E0
9.636428830E-1,6.519710541E0,7.948749661E-1,3.229778051E0,7.319147355E0
9.656553830E-1,6.455067158E0,7.637503147E-1,3.239354849E0,7.262549579E0
9.676678270E-1,6.395212173E0,7.637503147E-1,3.258508444E0,7.218028163E0
9.696802270E-1,6.378452778E0,7.685387731E-1,3.296815634E0,7.221101371E0
9.716925900E-1,6.347328186E0,7.709329724E-1,3.325546265E0,7.207091696E0
9.737050060E-1,6.325780392E0,7.781155705E-1,3.387795448E0,7.217902701E0
9.757173900E-1,6.328174591E0,7.757213712E-1,3.411737442E0,7.231008897E0
9.777297470E-1,6.316203594E0,7.829039693E-1,3.464409828E0,7.246344039E0
9.797420800E-1,6.306626320E0,7.948749661E-1,3.531447411E0,7.271621729E0
9.817543920E-1,6.309020519E0,7.972691655E-1,3.557783842E0,7.286782822E0
9.837666860E-1,6.325780392E0,7.852981687E-1,3.660734415E0,7.350725626E0
9.857789630E-1,6.330568790E0,7.829039693E-1,3.691859007E0,7.370133158E0
9.877912260E-1,6.337751389E0,7.876923680E-1,3.730166197E0,7.396059206E0
9.898034260E-1,6.385635376E0,8.140285611E-1,3.828328609E0,7.489664986E0
9.918330450E-1,6.457461357E0,8.283938169E-1,3.938461781E0,7.608976586E0
9.938619080E-1,6.524498940E0,8.619126081E-1,4.053383350E0,7.729288217E0
9.958900810E-1,6.553229332E0,8.954314590E-1,4.101267338E0,7.782480707E0
9.979176220E-1,6.651391506E0,9.696516991E-1,4.182670593E0,7.916815438E0
9.999445420E-1,6.754342079E0,1.010353088E0,4.247313976E0,8.042488812E0
1.001970965E0,6.905177116E0,1.065419793E0,4.285621166E0,8.196532140E0
1.003996890E0,6.974608898E0,1.103726983E0,4.297592163E0,8.266358384E0
1.006022354E0,7.108684063E0,1.180341482E0,4.309563160E0,8.396364079E0
1.008047354E0,7.254730225E0,1.252167463E0,4.302380562E0,8.526987304E0
1.010071987E0,7.321768284E0,1.288080573E0,4.307168961E0,8.591806959E0
1.012096587E0,7.453449249E0,1.355118155E0,4.335899353E0,8.728704035E0
1.014121153E0,7.575553417E0,1.436521053E0,4.381389141E0,8.868436904E0
1.016145719E0,7.628225803E0,1.460463047E0,4.410119534E0,8.931513619E0
1.018170319E0,7.743147373E0,1.517923832E0,4.496310711E0,9.081697749E0
1.020194919E0,7.812579632E0,1.568202138E0,4.592078686E0,9.196893231E0
1.022219552E0,7.834127426E0,1.604115129E0,4.623203278E0,9.236922995E0
1.024244252E0,7.858069420E0,1.644816518E0,4.685452938E0,9.295598185E0
1.026297352E0,7.855675220E0,1.651999116E0,4.730942726E0,9.317862058E0
1.028350518E0,7.860463619E0,1.644816518E0,4.733336926E0,9.321844675E0
1.030403718E0,7.862857819E0,1.640028119E0,4.735731125E0,9.324235872E0
1.032457018E0,7.814973831E0,1.628057122E0,4.718971729E0,9.273245395E0
1.034510284E0,7.798214436E0,1.632845521E0,4.695029736E0,9.247790931E0
1.036563584E0,7.769483566E0,1.632845521E0,4.663905144E0,9.207772291E0
1.038616950E0,7.728782177E0,1.630451322E0,4.632780075E0,9.157242853E0
1.040670350E0,7.702445984E0,1.625662923E0,4.601655483E0,9.118425701E0
1.042723850E0,7.654561996E0,1.635239720E0,4.517858505E0,9.037553528E0
1.044777383E0,7.613860607E0,1.635239720E0,4.460397720E0,8.974409736E0
1.046830916E0,7.601889610E0,1.642422318E0,4.426878929E0,8.948940371E0
1.048884516E0,7.587524414E0,1.663970232E0,4.335899353E0,8.896029837E0
1.050938182E0,7.544428825E0,1.687912226E0,4.266467571E0,8.830073585E0
1.052979682E0,7.515698433E0,1.716642618E0,4.220977783E0,8.789154582E0
1.055021215E0,7.503727436E0,1.742978811E0,4.201824188E0,8.774920346E0
1.057062781E0,7.467814445E0,1.750161409E0,4.173093796E0,8.731897238E0
1.059104347E0,7.439084053E0,1.740584612E0,4.132391930E0,8.685981200E0
1.061145980E0,7.429507256E0,1.733402014E0,4.110844135E0,8.666100629E0
1.063187580E0,7.412747860E0,1.740584612E0,4.072536945E0,8.635046195E0
1.065229146E0,7.367258072E0,1.733402014E0,4.084507942E0,8.600254599E0
1.067270612E0,7.352892876E0,1.726219416E0,4.079719543E0,8.584228484E0
1.069312078E0,7.305008888E0,1.728613615E0,4.070142746E0,8.539164002E0
1.071353478E0,7.273883820E0,1.723825216E0,4.086902142E0,8.519608460E0
1.073394944E0,7.247547626E0,1.697489023E0,4.079719543E0,8.488376001E0
1.075436444E0,7.190086842E0,1.675941229E0,4.084507942E0,8.437377135E0
1.077477977E0,7.158962250E0,1.649604917E0,4.091690540E0,8.409153843E0
1.079519477E0,7.149385452E0,1.637633920E0,4.070142746E0,8.388183306E0
1.081560977E0,7.142202854E0,1.623268723E0,4.065354347E0,8.376942696E0
1.083602443E0,7.137414455E0,1.640028119E0,4.062960148E0,8.374964030E0
1.085643843E0,7.163750648E0,1.666364431E0,4.043806553E0,8.393358399E0
1.087656876E0,7.163750648E0,1.687912226E0,4.041412354E0,8.396510278E0
1.089669842E0,7.187692642E0,1.723825216E0,4.017470360E0,8.412762150E0
1.091682808E0,7.225999832E0,1.759738207E0,4.007893562E0,8.448370431E0
1.093695708E0,7.247547626E0,1.790862918E0,4.007893562E0,8.473331541E0
1.095708608E0,7.278672218E0,1.819593310E0,3.998316765E0,8.501560211E0
1.097721508E0,7.316979885E0,1.838746905E0,3.986345768E0,8.532885643E0
1.099734374E0,7.336133480E0,1.838746905E0,3.981557369E0,8.547083930E0
1.101747274E0,7.384017467E0,1.860294700E0,3.983951569E0,8.593967677E0
1.103760140E0,7.417536259E0,1.884236693E0,4.027047157E0,8.647965129E0
1.105773040E0,7.453449249E0,1.900996208E0,4.086902142E0,8.710365171E0
1.107785940E0,7.486968040E0,1.903390408E0,4.122815132E0,8.756437066E0
1.109798806E0,7.508515835E0,1.917755604E0,4.237737179E0,8.832554160E0
1.111811672E0,7.501333237E0,1.944091797E0,4.350264549E0,8.886748274E0
1.113824505E0,7.518092632E0,1.951274395E0,4.405331135E0,8.929509001E0
1.115837338E0,7.580341816E0,1.968033791E0,4.510675907E0,9.037750615E0
1.117850138E0,7.616254807E0,1.999158382E0,4.580107689E0,9.109410407E0
1.119862971E0,7.659350395E0,2.011129379E0,4.587290287E0,9.151695036E0
1.121875771E0,7.726387978E0,2.042253971E0,4.556165695E0,9.199267270E0
1.123888537E0,7.805397034E0,2.066195965E0,4.513070107E0,9.249929211E0
1.125901370E0,7.848492622E0,2.078166962E0,4.491522312E0,9.278544446E0
1.127914336E0,7.915530205E0,2.128445387E0,4.438849926E0,9.321442316E0
1.129927402E0,7.982567787E0,2.185906172E0,4.395754337E0,9.371351581E0
1.131940468E0,8.028057098E0,2.214636564E0,4.393360138E0,9.415727757E0
1.133953501E0,8.083124161E0,2.269703150E0,4.383783340E0,9.471325407E0
1.135966567E0,8.121431351E0,2.331952572E0,4.410119534E0,9.531254077E0
1.137979600E0,8.138191223E0,2.391807556E0,4.434061527E0,9.571405403E0
1.139992666E0,8.140584946E0,2.415749550E0,4.458003521E0,9.590556008E0
1.142005732E0,8.135796547E0,2.434903145E0,4.537012100E0,9.628313330E0
1.144018832E0,8.109460831E0,2.454056740E0,4.625597477E0,9.653077305E0
1.146031998E0,8.083124161E0,2.451662540E0,4.683058739E0,9.658083897E0
1.148045064E0,8.078335762E0,2.451662540E0,4.781220913E0,9.702073557E0
1.150058130E0,8.061576843E0,2.439691544E0,4.826710701E0,9.707638859E0
1.152071130E0,8.042423248E0,2.432508945E0,4.857835293E0,9.705474497E0
1.154084130E0,7.996932983E0,2.406172752E0,4.920383930E0,9.692821182E0
1.156097130E0,7.961019993E0,2.375048161E0,4.934749126E0,9.662838198E0
1.158110063E0,7.949048996E0,2.370259762E0,4.939537525E0,9.654249957E0
1.160123063E0,7.922712803E0,2.363077164E0,4.953902721E0,9.638187797E0
1.162136063E0,7.903559208E0,2.351106167E0,4.992209911E0,9.639300190E0
1.164149063E0,7.913136005E0,2.353500366E0,5.030517101E0,9.667615410E0
1.166162063E0,7.939472198E0,2.406172752E0,5.073612690E0,9.724527332E0
1.168175063E0,7.965808392E0,2.415749550E0,5.104737282E0,9.764644998E0
1.170188063E0,7.989750385E0,2.456450939E0,5.181351662E0,9.834463253E0
1.172201096E0,8.008903503E0,2.485181332E0,5.212476254E0,9.873630045E0
1.174214162E0,8.054393768E0,2.528276920E0,5.284302235E0,9.959382173E0
1.176227162E0,8.121431351E0,2.585737944E0,5.358522892E0,1.006764399E1
1.178240128E0,8.162133217E0,2.619256735E0,5.401618481E0,1.013204849E1
1.180253061E0,8.250718117E0,2.662352324E0,5.487809658E0,1.026053235E1
1.182265994E0,8.332120895E0,2.715024710E0,5.576395035E0,1.038709677E1
1.184278994E0,8.380004883E0,2.741360903E0,5.621884823E0,1.045682219E1
1.186291960E0,8.485349655E0,2.817975283E0,5.710470200E0,1.060903452E1
1.189237960E0,8.624214172E0,2.873042107E0,5.806238174E0,1.078628030E1
1.191234096E0,8.667309761E0,2.896984100E0,5.834969044E0,1.084258452E1
1.193249096E0,8.770259857E0,2.968810081E0,5.906795025E0,1.098278283E1
1.195262096E0,8.889969826E0,3.045424461E0,5.976226807E0,1.113649229E1
1.197274596E0,8.947430611E0,3.078943491E0,6.016928196E0,1.121337739E1
1.199287596E0,9.069535255E0,3.134010077E0,6.088754177E0,1.136448047E1
1.201300596E0,9.237129211E0,3.184288263E0,6.148609161E0,1.154424716E1
1.203313396E0,9.325715065E0,3.213018656E0,6.167762756E0,1.163330339E1
1.205326229E0,9.534010887E0,3.260902643E0,6.172551155E0,1.181656623E1
1.207339086E0,9.744700432E0,3.354276657E0,6.177339554E0,1.201540188E1
1.209351836E0,9.936236382E0,3.406949043E0,6.162974358E0,1.217860206E1
1.211364836E0,1.002961063E1,3.529053211E0,6.155791759E0,1.228580800E1
1.213377836E0,1.022593498E1,3.665522814E0,6.136638165E0,1.247654326E1
1.215390926E0,1.038634586E1,3.768473387E0,6.127061367E0,1.263401967E1
1.217404009E0,1.046056652E1,3.825934410E0,6.124667168E0,1.271112796E1
1.219417085E0,1.059943008E1,3.931279182E0,6.098330975E0,1.284494121E1
1.221430299E0,1.075265884E1,4.034229755E0,6.071994781E0,1.299091231E1
1.223443565E0,1.083166790E1,4.072536945E0,6.079177380E0,1.307160986E1
1.225456877E0,1.098010826E1,4.137180328E0,6.069600582E0,1.321056735E1
1.227470229E0,1.113573170E1,4.201824188E0,6.076783180E0,1.336364998E1
1.229483395E0,1.120516300E1,4.235342979E0,6.086359978E0,1.343642757E1
1.231496500E0,1.131769085E1,4.297592163E0,6.124667168E0,1.356727579E1
1.233509550E0,1.142064095E1,4.338293552E0,6.174945354E0,1.368874650E1
1.235540216E0,1.148767948E1,4.357447147E0,6.230011940E0,1.377560069E1
1.237570125E0,1.156429386E1,4.362235546E0,6.299443722E0,1.387245410E1
1.239599255E0,1.159302425E1,4.371812344E0,6.356904984E0,1.392555907E1
1.241627755E0,1.163372517E1,4.359841347E0,6.457461357E0,1.400180649E1
1.243655555E0,1.165527344E1,4.362235546E0,6.567594528E0,1.407152429E1
1.245682785E0,1.165766716E1,4.345476151E0,6.622661114E0,1.409411249E1
1.247709488E0,1.166485023E1,4.311957359E0,6.692092896E0,1.412252862E1
1.249735702E0,1.166245556E1,4.266467571E0,6.771101475E0,1.414437805E1
1.251761460E0,1.167921543E1,4.235342979E0,6.814197540E0,1.416952686E1
1.253786793E0,1.172949314E1,4.197035789E0,6.890811920E0,1.423655182E1
1.255812126E0,1.178695393E1,4.173093796E0,6.962637901E0,1.431171972E1
1.257837492E0,1.180131912E1,4.177882195E0,6.993762493E0,1.434010274E1
1.259862825E0,1.189229870E1,4.168305397E0,7.051223278E0,1.444026620E1
1.261888158E0,1.199046135E1,4.177882195E0,7.103895664E0,1.454961156E1
1.263913491E0,1.206468201E1,4.177882195E0,7.125443459E0,1.462132675E1
1.265938824E0,1.222030449E1,4.204218388E0,7.173327446E0,1.478066036E1
1.267964157E0,1.241423512E1,4.237737179E0,7.245153427E0,1.498545622E1
1.270017790E0,1.264407825E1,4.290409565E0,7.333739281E0,1.523364897E1
1.272071390E0,1.289068127E1,4.359841347E0,7.398382664E0,1.548915576E1
1.274124990E0,1.318516827E1,4.438849926E0,7.472602844E0,1.579214501E1
1.276178523E0,1.334079075E1,4.486733913E0,7.525275230E0,1.596049016E1
1.278232023E0,1.367119122E1,4.601655483E0,7.644985199E0,1.632551687E1
1.280285489E0,1.405665779E1,4.738125324E0,7.747935772E0,1.673529111E1
1.282338822E0,1.424101067E1,4.802768707E0,7.803002834E0,1.693398433E1
1.284392088E0,1.460732365E1,4.934749126E0,7.937077999E0,1.734136270E1
1.286445288E0,1.497154140E1,5.049670696E0,8.073547363E0,1.774340422E1
1.288498421E0,1.527799988E1,5.174169064E0,8.181286812E0,1.808653531E1
1.290551621E0,1.543122864E1,5.229235649E0,8.229170799E0,1.825340995E1
1.292604854E0,1.566346645E1,5.329792023E0,8.322544098E0,1.852068046E1
1.294658154E0,1.582387733E1,5.372888088E0,8.425495148E0,1.871502041E1
1.296699120E0,1.589570332E1,5.389647484E0,8.478167534E0,1.880428166E1
1.298740053E0,1.601780701E1,5.392041683E0,8.590695381E0,1.895901638E1
1.300781053E0,1.610160446E1,5.353734493E0,8.715193748E0,1.907560592E1
1.302822019E0,1.611836433E1,5.334580898E0,8.779836655E0,1.911399890E1
1.304863019E0,1.610878754E1,5.279513836E0,8.887576103E0,1.914041042E1
1.306904019E0,1.607048035E1,5.186140060E0,8.978555679E0,1.912513658E1
1.308944985E0,1.600344276E1,5.145438671E0,9.024045944E0,1.907928522E1
1.310985951E0,1.587176132E1,5.032911301E0,9.095871925E0,1.897308329E1
1.313026851E0,1.569698524E1,4.901230335E0,9.136572838E0,1.881208037E1
1.315067717E0,1.560600567E1,4.826710701E0,9.148544312E0,1.872272448E1
1.317108583E0,1.537137318E1,4.666299343E0,9.167697906E0,1.849594950E1
1.319149449E0,1.511998272E1,4.529829502E0,9.184456825E0,1.826163957E1
1.321190315E0,1.490211010E1,4.395754337E0,9.206005096E0,1.805951471E1
1.323231181E0,1.478240013E1,4.340687752E0,9.220370293E0,1.795483646E1
1.325272047E0,1.455465126E1,4.211400986E0,9.227552414E0,1.774039163E1
1.327312880E0,1.437269211E1,4.091690540E0,9.210793495E0,1.755434210E1
1.329353713E0,1.428410625E1,4.031835556E0,9.186851501E0,1.745536107E1
1.331366313E0,1.413087749E1,3.916913986E0,9.122207642E0,1.726958558E1
1.333378846E0,1.405426311E1,3.840299606E0,9.036016464E0,1.714408954E1
1.335391379E0,1.403271580E1,3.821146011E0,8.995314598E0,1.710070040E1
1.337403945E0,1.402553272E1,3.775655985E0,8.901941299E0,1.703571851E1
1.339416545E0,1.403271580E1,3.782838583E0,8.810961723E0,1.699588265E1
1.341429211E0,1.402792740E1,3.801992416E0,8.782231331E0,1.698132741E1
1.343441944E0,1.399919701E1,3.866635799E0,8.710405350E0,1.693515724E1
1.345454710E0,1.399201393E1,3.919308186E0,8.626607895E0,1.689839620E1
1.347467510E0,1.396807194E1,3.936067581E0,8.538022995E0,1.683738395E1
1.349480343E0,1.399680233E1,3.976768970E0,8.437465668E0,1.682010683E1
1.351495043E0,1.402553272E1,3.991134167E0,8.372822762E0,1.681513845E1
1.353507909E0,1.410454178E1,4.022258759E0,8.210017204E0,1.680836241E1
1.355520742E0,1.414524269E1,4.041412354E0,8.131008148E0,1.680875362E1
1.357533608E0,1.423622227E1,4.106055737E0,7.982567787E0,1.683006556E1
1.359546474E0,1.434156704E1,4.192247391E0,7.860463619E0,1.688319791E1
1.361559340E0,1.437748051E1,4.247313976E0,7.798214436E0,1.689863220E1
1.363572240E0,1.443733597E1,4.340687752E0,7.649773598E0,1.690553981E1
1.365585173E0,1.447324848E1,4.417302132E0,7.508515835E0,1.689275850E1
1.367598106E0,1.447324848E1,4.443638325E0,7.429507256E0,1.686470934E1
1.369611072E0,1.443972969E1,4.496310711E0,7.285854816E0,1.678708682E1
1.371624072E0,1.440621090E1,4.503493309E0,7.123049259E0,1.669006277E1
1.373637172E0,1.432241344E1,4.486733913E0,7.041646481E0,1.657851300E1
1.375650338E0,1.426016426E1,4.450820923E0,6.886023521E0,1.644929821E1
1.377663504E0,1.409257030E1,4.367023945E0,6.718429089E0,1.621137642E1
1.379676704E0,1.387709236E1,4.256890774E0,6.555623531E0,1.592705281E1
1.381689904E0,1.374301720E1,4.189853191E0,6.479009151E0,1.576080426E1
1.383703104E0,1.342458820E1,4.055777550E0,6.320991993E0,1.538258235E1
1.385716337E0,1.311094761E1,3.902548790E0,6.141426563E0,1.499479758E1
1.387729603E0,1.295053673E1,3.825934410E0,6.050446987E0,1.479736748E1
1.389742836E0,1.261774254E1,3.643975019E0,5.854122639E0,1.437903796E1
1.391756002E0,1.232564926E1,3.473986626E0,5.614702225E0,1.398267120E1
1.393769202E0,1.217960358E1,3.392583847E0,5.492598057E0,1.378481055E1
1.395783102E0,1.187553978E1,3.229778051E0,5.222053051E0,1.336898461E1
1.397796235E0,1.155471706E1,3.078943491E0,4.922778130E0,1.293155536E1
1.399809335E0,1.120037460E1,3.011905670E0,4.642356873E0,1.249285573E1
1.401822368E0,1.099926186E1,2.880224705E0,4.505887508E0,1.223039157E1
1.403835434E0,1.057788277E1,2.729389906E0,4.225766182E0,1.171316665E1
1.405848500E0,1.013495541E1,2.580949545E0,3.960009575E0,1.118303615E1
1.407861566E0,9.909899712E0,2.506729126E0,3.830722809E0,1.091623747E1
1.409874666E0,9.215581894E0,2.205059767E0,3.531447411E0,1.011238642E1
1.411885899E0,8.983344078E0,2.104503393E0,3.433285236E0,9.844635741E0
1.413898932E0,8.739135742E0,1.994369984E0,3.337517262E0,9.564989630E0
1.415911965E0,8.219594002E0,1.771709204E0,3.145981073E0,8.977631980E0
1.417924998E0,7.664138794E0,1.503558636E0,2.940079689E0,8.345284932E0
1.419938031E0,7.381623268E0,1.350329757E0,2.839523315E0,8.023381157E0
1.421951031E0,6.807014942E0,1.084573388E0,2.614468336E0,7.372055110E0
1.423963964E0,6.251559734E0,8.236053586E-1,2.370259762E0,6.736353334E0
1.425976864E0,5.959467411E0,6.991068721E-1,2.243366957E0,6.405989193E0
1.427989764E0,5.408801079E0,4.860229492E-1,1.982398987E0,5.781111758E0
1.430002630E0,4.857835293E0,2.992752194E-1,1.680729628E0,5.149075788E0
1.432043730E0,4.323928356E0,1.580173075E-1,1.333570361E0,4.527663394E0
1.434084830E0,3.811569214E0,4.070143029E-2,1.007958889E0,3.942803267E0
1.436125930E0,3.306392431E0,-6.224924326E-2,6.344634295E-1,3.367291155E0
1.438167030E0,3.083731890E0,-1.053448766E-1,4.477157295E-1,3.117843692E0
1.440208163E0,2.628833532E0,-1.963245422E-1,7.182604820E-2,2.637132543E0
1.442249329E0,2.185906172E0,-3.016694188E-1,-2.609679997E-1,2.222002369E0
1.444290529E0,1.944091797E0,-3.495534360E-1,-3.902548850E-1,2.013449626E0
1.446331762E0,1.462857246E0,-4.716577232E-1,-5.913678408E-1,1.646854048E0
1.448373028E0,9.768342972E-1,-6.248866320E-1,-7.254431248E-1,1.367829037E0
1.450414361E0,5.195417404E-1,-7.158663273E-1,-7.637503147E-1,1.168632860E0
1.452455727E0,2.753331959E-1,-9.145850539E-1,-8.068459630E-1,1.250309801E0
1.454497127E0,-2.489969730E-1,-1.115697980E0,-8.307880163E-1,1.413149038E0
1.456537827E0,-7.422025204E-1,-1.323993564E0,-8.523358107E-1,1.740775652E0
1.458579260E0,-9.983820915E-1,-1.424550056E0,-8.667010069E-1,1.943522652E0
1.460620760E0,-1.527500629E0,-1.616086125E0,-8.978256583E-1,2.398141666E0
1.462662293E0,-2.070984364E0,-1.783680320E0,-9.385270476E-1,2.889865868E0
1.464703793E0,-2.339135170E0,-1.874659896E0,-9.624691010E-1,3.148372570E0
1.466745326E0,-2.870647907E0,-2.047042370E0,-1.041477680E0,3.676367450E0
1.468786859E0,-3.404554844E0,-2.219424963E0,-1.130063176E0,4.218279701E0
1.470828325E0,-3.955221176E0,-2.360682964E0,-1.240196466E0,4.770187196E0
1.472869758E0,-4.249708176E0,-2.427720547E0,-1.297657371E0,5.063374496E0
1.474911191E0,-4.860229492E0,-2.588132143E0,-1.422155857E0,5.687071829E0
1.476952591E0,-5.169380665E0,-2.667140722E0,-1.496376038E0,6.006269835E0
1.479009491E0,-6.131849766E0,-2.896984100E0,-1.781286120E0,7.011781419E0
1.481066424E0,-6.462249756E0,-2.971204281E0,-1.886630893E0,7.358539455E0
1.483123390E0,-7.154173851E0,-3.136404276E0,-2.111685991E0,8.091875740E0
1.485180356E0,-7.841310024E0,-3.296815634E0,-2.398990154E0,8.838002601E0
1.487237322E0,-8.166921616E0,-3.356670856E0,-2.561795712E0,9.193946116E0
1.489294322E0,-8.746317863E0,-3.485957623E0,-2.896984100E0,9.851014851E0
1.491351388E0,-9.332897186E0,-3.665522814E0,-3.232172251E0,1.053498765E1
1.493380221E0,-9.624990463E0,-3.761290789E0,-3.397372246E0,1.087795422E1
1.495409021E0,-1.018044472E1,-3.979163170E0,-3.746925592E0,1.155485377E1
1.497437821E0,-1.081730270E1,-4.230554581E0,-4.082113743E0,1.231159139E1
1.499466654E0,-1.114530849E1,-4.371812344E0,-4.230554581E0,1.269756814E1
1.501495420E0,-1.180371380E1,-4.668693542E0,-4.508281708E0,1.347029928E1
1.503524153E0,-1.248845577E1,-4.985027313E0,-4.783615112E0,1.427217567E1
1.505552853E0,-1.323305225E1,-5.140650272E0,-5.018546104E0,1.505741552E1
1.507581553E0,-1.361612415E1,-5.447108269E0,-5.119102478E0,1.553303047E1
1.509610253E0,-1.435353851E1,-5.724835396E0,-5.281908035E0,1.633084078E1
1.511638953E0,-1.506491566E1,-5.957073212E0,-5.377676487E0,1.706920647E1
1.513695886E0,-1.577120495E1,-6.179733753E0,-5.427954674E0,1.778715005E1
1.515752852E0,-1.641285133E1,-6.373664379E0,-5.490203857E0,1.844309152E1
1.517809818E0,-1.672649193E1,-6.462249756E0,-5.523722649E0,1.876293463E1
1.519866851E0,-1.731307030E1,-6.637026310E0,-5.576395035E0,1.936204284E1
1.521923851E0,-1.783979607E1,-6.778284073E0,-5.662586212E0,1.990648993E1
1.523980884E0,-1.810555267E1,-6.857293129E0,-5.724835396E0,2.018928545E1
1.526037950E0,-1.857242203E1,-7.010521889E0,-5.856516838E0,2.069736859E1
1.528095016E0,-1.896267509E1,-7.192481041E0,-5.995380402E0,2.114850861E1
1.530152082E0,-1.927152824E1,-7.360075474E0,-6.124667168E0,2.151915565E1
1.532209215E0,-1.950855446E1,-7.554005623E0,-6.186916351E0,2.181569692E1
1.534266415E0,-1.958277512E1,-7.642591000E0,-6.206069946E0,2.191824771E1
1.536323681E0,-1.966178322E1,-7.791031837E0,-6.220435143E0,2.204494749E1
1.538380981E0,-1.966178322E1,-7.865252018E0,-6.189310551E0,2.206253552E1
1.540422747E0,-1.954925537E1,-8.008903503E0,-6.050446987E0,2.197552797E1
1.542464480E0,-1.931701851E1,-8.159738541E0,-5.811026573E0,2.175997626E1
1.544506180E0,-1.915421295E1,-8.250718117E0,-5.655403614E0,2.160883646E1
1.546547946E0,-1.873043823E1,-8.459013939E0,-5.272331238E0,2.121748595E1
1.548589746E0,-1.824920464E1,-8.681674957E0,-4.903624535E0,2.079544382E1
1.550631512E0,-1.799062920E1,-8.798990250E0,-4.718971729E0,2.057555983E1
1.552673245E0,-1.744475174E1,-9.086295128E0,-4.350264549E0,2.014460037E1
1.554714911E0,-1.683183670E1,-9.399934769E0,-3.971980572E0,1.968365134E1
1.556756544E0,-1.615427780E1,-9.584288597E0,-3.586514235E0,1.912282311E1
1.558799844E0,-1.579993534E1,-9.912294388E0,-3.390189648E0,1.895745032E1
1.560841444E0,-1.508167553E1,-1.021635818E1,-2.987963676E0,1.845965434E1
1.562883044E0,-1.438226891E1,-1.051084518E1,-2.583343744E0,1.800003306E1
1.564924644E0,-1.399201393E1,-1.065689087E1,-2.403778553E0,1.775173029E1
1.566966244E0,-1.320432186E1,-1.098968506E1,-2.087743998E0,1.730566290E1
1.569007810E0,-1.234719753E1,-1.131529617E1,-1.807622313E0,1.684507978E1
1.571049376E0,-1.190427017E1,-1.148049641E1,-1.687912226E0,1.662415393E1
1.573090909E0,-1.099926186E1,-1.183244419E1,-1.498770237E0,1.622457424E1
1.575104175E0,-1.010143661E1,-1.222988129E1,-1.364694953E0,1.592078548E1
1.577117408E0,-9.624990463E0,-1.242141724E1,-1.312022567E0,1.576874918E1
1.579130641E0,-8.648156166E0,-1.283082581E1,-1.244984865E0,1.552323044E1
1.581143841E0,-7.568370819E0,-1.323305225E1,-1.161187768E0,1.528863192E1
1.583157041E0,-6.378452778E0,-1.359936523E1,-1.055842996E0,1.505796132E1
1.585170207E0,-5.748777390E0,-1.375738239E1,-9.959878922E-1,1.494342677E1
1.587183340E0,-4.412513733E0,-1.400877380E1,-8.882488012E-1,1.471410911E1
1.589196440E0,-2.935291290E0,-1.419073296E1,-7.996633649E-1,1.451317671E1
1.591209540E0,-2.154781580E0,-1.425298214E1,-7.685387731E-1,1.443541601E1
1.593222606E0,4.644751251E-1,-1.431523132E1,-6.033388376E-1,1.433546660E1
1.595235606E0,1.393425345E0,-1.432480812E1,-5.506663918E-1,1.440295093E1
1.597248572E0,2.367865562E0,-1.433677864E1,-5.003881454E-1,1.453961476E1
1.599261572E0,4.450820923E0,-1.436072063E1,-4.118026793E-1,1.504026880E1
1.601274572E0,6.639420509E0,-1.430565453E1,-3.615244627E-1,1.577543521E1
1.603287572E0,7.759906769E0,-1.423622227E1,-3.399766386E-1,1.621732905E1
1.605300605E0,1.000327396E1,-1.397764874E1,-3.064578176E-1,1.719110440E1
1.607313605E0,1.218199730E1,-1.359936523E1,-3.064578176E-1,1.826027682E1
1.609326605E0,1.326417637E1,-1.336712742E1,-3.112462163E-1,1.883388819E1
1.611339571E0,1.532588387E1,-1.281646061E1,-3.088520169E-1,1.998098517E1
1.613352537E0,1.770093155E1,-1.208144093E1,-2.896983922E-1,2.143287470E1
1.615365537E0,2.004006767E1,-1.127938366E1,-1.532289088E-1,2.299678863E1
1.617378570E0,2.115815926E1,-1.086997509E1,-4.788403399E-3,2.378705708E1
1.619389903E0,2.361461067E1,-1.005115795E1,3.064578176E-1,2.566650599E1
1.621402903E0,2.617670441E1,-9.170091629E0,7.158663273E-1,2.774568252E1
1.623415903E0,2.752942848E1,-8.717587471E0,9.528923035E-1,2.889245174E1
1.625428903E0,3.039049911E1,-7.697657585E0,1.491587639E0,3.138568467E1
1.627441869E0,3.350535583E1,-6.400000572E0,2.097320795E0,3.417554142E1
1.629454802E0,3.510258865E1,-5.612308025E0,2.408566952E0,3.562991617E1
1.631467735E0,3.835391235E1,-3.763684988E0,3.078943491E0,3.866093391E1
1.633480701E0,4.153820419E1,-1.505952835E0,3.809175014E0,4.173967077E1
1.635493601E0,4.308485794E1,-2.873041928E-1,4.187458992E0,4.328882466E1
1.637506401E0,4.611861038E1,2.243366957E0,5.016151905E0,4.644481348E1
1.639520001E0,4.898686218E1,4.695029736E0,5.894824028E0,4.956314075E1
1.641532801E0,5.167794418E1,6.900388718E0,6.847716331E0,5.258437504E1
1.643545567E0,5.292293167E1,7.891588211E0,7.374440670E0,5.401385226E1
1.645558333E0,5.515462494E1,9.756670952E0,8.585906982E0,5.666518401E1
1.647571066E0,5.700534439E1,1.137515163E1,1.003200436E1,5.898851138E1
1.649583766E0,5.767093277E1,1.210777760E1,1.085560989E1,5.991977162E1
1.651596466E0,5.845144272E1,1.345810699E1,1.275421143E1,6.132178821E1
1.653609166E0,5.859270096E1,1.456901646E1,1.480873585E1,6.216638564E1
1.655622966E0,5.852566147E1,1.499308968E1,1.581190681E1,6.245047786E1
1.657636766E0,5.820005035E1,1.558924580E1,1.762910652E1,6.277782923E1
1.659650499E0,5.762065506E1,1.581908894E1,1.917336655E1,6.275349750E1
1.661664199E0,5.723040009E1,1.582387733E1,1.977909851E1,6.258535392E1
1.663677899E0,5.620328522E1,1.564431286E1,2.072959709E1,6.191340719E1
1.665691565E0,5.487689972E1,1.528518200E1,2.135448265E1,6.083687073E1
1.667705198E0,5.326769638E1,1.481113052E1,2.167051888E1,5.938373896E1
1.669718831E0,5.239141846E1,1.453549767E1,2.173276711E1,5.855300664E1
1.671732497E0,5.063167953E1,1.393215942E1,2.172558403E1,5.683021239E1
1.673746130E0,4.886236572E1,1.328093624E1,2.157953835E1,5.504171624E1
1.676679130E0,4.713375092E1,1.266083813E1,2.133772469E1,5.326524000E1
1.678684096E0,4.545302200E1,1.207186413E1,2.106239128E1,5.152990820E1
1.680696096E0,4.465335846E1,1.180610752E1,2.089479637E1,5.069417237E1
1.682710096E0,4.313513565E1,1.133684444E1,2.047102356E1,4.907368720E1
1.684723596E0,4.172974014E1,1.097292614E1,1.992514420E1,4.752670504E1
1.686736929E0,4.047039032E1,1.070477486E1,1.925716209E1,4.607909493E1
1.688750179E0,3.987662506E1,1.060421848E1,1.887648392E1,4.537528315E1
1.690763579E0,3.878726578E1,1.044380665E1,1.804090881E1,4.403407175E1
1.692777079E0,3.776972961E1,1.031691456E1,1.715505409E1,4.274677862E1
1.694790793E0,3.729807281E1,1.025466537E1,1.670973206E1,4.213691426E1
1.696804418E0,3.642418671E1,1.013016701E1,1.579275322E1,4.097258492E1
1.698818084E0,3.563649368E1,9.981725693E0,1.486859131E1,3.988319868E1
1.700831684E0,3.527018356E1,9.893140793E0,1.440860558E1,3.936328236E1
1.702845411E0,3.463332367E1,9.715970039E0,1.348444366E1,3.841480708E1
1.704858994E0,3.404405212E1,9.531616211E0,1.253633976E1,3.751011873E1
1.706872455E0,3.375435257E1,9.445425034E0,1.207186413E1,3.707158312E1
1.708885955E0,3.317495728E1,9.280224800E0,1.115967369E1,3.621102980E1
1.710899355E0,3.252612686E1,9.081506729E0,1.027621269E1,3.529905438E1
1.712912730E0,3.181983757E1,8.985737801E0,9.397541046E0,3.437381743E1
1.714926024E0,3.101778030E1,8.542811394E0,8.600272179E0,3.330235732E1
1.716939135E0,3.060597801E1,8.334515572E0,8.219594002E0,3.276815169E1
1.718952082E0,2.976321983E1,7.838915825E0,7.554005623E0,3.169165280E1
1.720964982E0,2.932986832E1,7.570765018E0,7.242759228E0,3.114506734E1
1.722997029E0,2.842964935E1,6.945878506E0,6.670545101E0,3.001643487E1
1.725028256E0,2.755097771E1,6.294655323E0,6.162974358E0,2.892509829E1
1.727058647E0,2.671540070E1,5.626673222E0,5.736806393E0,2.789772452E1
1.729088272E0,2.630120277E1,5.289090633E0,5.542876244E0,2.739436482E1
1.731117232E0,2.547520447E1,4.604049683E0,5.183745861E0,2.640179042E1
1.733145501E0,2.464441681E1,3.938461781E0,4.845864296E0,2.542324058E1
1.735173204E0,2.421076584E1,3.598485231E0,4.687847137E0,2.492160086E1
1.737200346E0,2.328899765E1,2.896984100E0,4.410119534E0,2.387926051E1
1.739227035E0,2.230258751E1,2.183511972E0,4.218583584E0,2.280284152E1
1.741253235E0,2.127068710E1,1.814804912E0,4.110844135E0,2.174016298E1
1.743279435E0,2.075832748E1,1.070208192E0,4.070142746E0,2.118064134E1
1.745305635E0,1.973600388E1,3.519476354E-1,3.991134167E0,2.013859151E1
1.747331835E0,1.870649719E1,-3.567360640E-1,3.931279182E0,1.911845323E1
1.749358068E0,1.819892502E1,-7.110779285E-1,3.907337189E0,1.862723242E1
1.751384268E0,1.721730232E1,-1.426944256E0,3.881000996E0,1.770688674E1
1.753410434E0,1.627398682E1,-2.106897593E0,3.830722809E0,1.685099705E1
1.755436500E0,1.582387733E1,-2.430114746E0,3.804386616E0,1.645520918E1
1.757490833E0,1.451395035E1,-3.327940464E0,3.670311213E0,1.533626835E1
1.759545166E0,1.408059978E1,-3.612850428E0,3.615244627E0,1.497951842E1
1.761599499E0,1.319474506E1,-4.204218388E0,3.490746021E0,1.428152854E1
1.763653765E0,1.236635113E1,-4.728548527E0,3.347094059E0,1.365609205E1
1.765708065E0,1.153795719E1,-5.231629848E0,3.153163671E0,1.305514642E1
1.767762365E0,1.110700130E1,-5.459079266E0,3.040636063E0,1.274411598E1
1.769816565E0,1.022354031E1,-5.861305237E0,2.806004286E0,1.211401401E1
1.771870731E0,9.352050781E0,-6.251559734E0,2.612074137E0,1.154841046E1
1.773924897E0,8.925883293E0,-6.443096161E0,2.537853718E0,1.129714930E1
1.775979097E0,7.714416981E0,-6.996156693E0,2.387019157E0,1.068439508E1
1.778033363E0,7.328950882E0,-7.178115845E0,2.346317768E0,1.052350109E1
1.780087729E0,6.933907509E0,-7.345710278E0,2.312798738E0,1.036279744E1
1.782142162E0,6.179733753E0,-7.630620003E0,2.236184359E0,1.007055070E1
1.784183162E0,5.475838661E0,-7.910741806E0,2.138022184E0,9.855748770E0
1.786224128E0,5.140650272E0,-8.035240173E0,2.078166962E0,9.762691626E0
1.788265094E0,4.493916512E0,-8.233959198E0,1.936909199E0,9.578360347E0
1.790306094E0,3.869029999E0,-8.418312073E0,1.812410712E0,9.440455703E0
1.792347060E0,3.294421434E0,-8.514080048E0,1.757344007E0,9.296829008E0
1.794388093E0,3.026270866E0,-8.672098160E0,1.625662923E0,9.327721147E0
1.796429126E0,2.444479942E0,-8.779836655E0,1.486799240E0,9.234261522E0
1.798470092E0,1.872265697E0,-8.866027832E0,1.326387763E0,9.158118412E0
1.800510992E0,1.594538331E0,-8.909123421E0,1.233013868E0,9.134295584E0
1.802552558E0,1.031900883E0,-8.983344078E0,1.053448796E0,9.103573179E0
1.804593458E0,4.213795066E-1,-9.069535255E0,8.834604025E-1,9.122199993E0
1.806634358E0,9.097966552E-2,-9.126996040E0,8.092401624E-1,9.163252897E0
1.808675191E0,-6.009446383E-1,-9.251494408E0,6.440402865E-1,9.293334769E0
1.810715957E0,-1.343147159E0,-9.407117844E0,4.836287498E-1,9.514820397E0
1.812756690E0,-1.719036818E0,-9.488520622E0,4.141969085E-1,9.651873925E0
1.814797390E0,-2.492363930E0,-9.689633369E0,2.729389966E-1,1.000876458E1
1.816838090E0,-3.308786631E0,-9.902717590E0,8.619125932E-2,1.044123142E1
1.818850490E0,-3.725377798E0,-1.000806236E1,0.000000000E0,1.067893965E1
1.820862856E0,-4.601655483E0,-1.023311710E1,-1.939303428E-1,1.122183264E1
1.822875189E0,-5.499780655E0,-1.049647999E1,-3.998316824E-1,1.185679319E1
1.824887555E0,-6.416759968E0,-1.076941872E1,-6.009446383E-1,1.255055068E1
1.826899921E0,-6.902782917E0,-1.091785908E1,-7.015010715E-1,1.293600257E1
1.828912321E0,-7.934683800E0,-1.120276928E1,-8.858546019E-1,1.375667056E1
1.830924754E0,-9.014469147E0,-1.146852589E1,-1.089361787E0,1.462786550E1
1.832937254E0,-9.601048470E0,-1.160260105E1,-1.209071875E0,1.510835324E1
1.834949754E0,-1.095855999E1,-1.186117458E1,-1.496376038E0,1.621778779E1
1.836962254E0,-1.242141724E1,-1.207425880E1,-1.924938202E0,1.742942107E1
1.838976520E0,-1.321868706E1,-1.216523838E1,-2.202665567E0,1.809912838E1
1.840988986E0,-1.490450382E1,-1.228015995E1,-2.885013103E0,1.952613283E1
1.843001419E0,-1.665466499E1,-1.232804394E1,-3.756502390E0,2.105872369E1
1.845013852E0,-1.750939560E1,-1.231367874E1,-4.237737179E0,2.182118317E1
1.847026318E0,-1.920927811E1,-1.221791077E1,-5.284302235E0,2.337086988E1
1.849038784E0,-2.080860519E1,-1.206947041E1,-6.397606373E0,2.489175633E1
1.851051217E0,-2.222118378E1,-1.198088455E1,-7.472602844E0,2.632797745E1
1.853063650E0,-2.287240791E1,-1.177498341E1,-7.965808392E0,2.693049166E1
1.855076050E0,-2.414612198E1,-1.151401520E1,-8.868422508E0,2.818255968E1
1.857088450E0,-2.542013741E1,-1.119319248E1,-9.629778862E0,2.939733975E1
1.859100950E0,-2.600671577E1,-1.103517532E1,-9.950601578E0,2.995227590E1
1.861113450E0,-2.705298233E1,-1.078378391E1,-1.042465305E1,3.093262420E1
1.863125250E0,-2.788376999E1,-1.066886234E1,-1.069280434E1,3.171222662E1
1.865137716E0,-2.818065262E1,-1.067843914E1,-1.073589993E1,3.199121429E1
1.867150149E0,-2.858048439E1,-1.076941872E1,-1.061618996E1,3.233462473E1
1.869162615E0,-2.877441406E1,-1.096095467E1,-1.024030018E1,3.244954822E1
1.871175115E0,-2.878638458E1,-1.106869411E1,-9.945813179E0,3.240510957E1
1.873187615E0,-2.870019341E1,-1.131529617E1,-9.158121109E0,3.218086716E1
1.875200115E0,-2.841049576E1,-1.160738945E1,-8.121431351E0,3.174658102E1
1.877212681E0,-2.790292358E1,-1.192102909E1,-6.917148113E0,3.112123097E1
1.879225181E0,-2.756534195E1,-1.208144093E1,-6.299443722E0,3.074885824E1
1.881237614E0,-2.674413109E1,-1.240944672E1,-5.164592266E0,2.993185475E1
1.883251280E0,-2.583672905E1,-1.278294182E1,-4.132391930E0,2.912072857E1
1.885263646E0,-2.540816689E1,-1.295532513E1,-3.660734415E0,2.875441479E1
1.887275979E0,-2.452231216E1,-1.327614784E1,-2.782062292E0,2.802391418E1
1.889288279E0,-2.355714989E1,-1.359936523E1,-1.960851192E0,2.727135829E1
1.891300579E0,-2.302324295E1,-1.374062252E1,-1.577778935E0,2.685821680E1
1.893312845E0,-2.193627357E1,-1.399680233E1,-8.164227605E-1,2.603415295E1
1.895325078E0,-2.083972931E1,-1.423382854E1,-9.337386489E-2,2.523697508E1
1.897337278E0,-1.975755119E1,-1.451873875E1,5.961562395E-1,2.452570093E1
1.899349311E0,-1.924758530E1,-1.467196751E1,9.289502501E-1,2.421980840E1
1.901363177E0,-1.825638580E1,-1.499787807E1,1.541865945E0,2.367718987E1
1.903377043E0,-1.725082207E1,-1.520138550E1,2.099714994E0,2.308856397E1
1.905390943E0,-1.672649193E1,-1.562037086E1,2.358288765E0,2.300723895E1
1.907404776E0,-1.565388966E1,-1.608005714E1,2.865859509E0,2.262356404E1
1.909418609E0,-1.458817005E1,-1.657565689E1,3.330334663E0,2.233065686E1
1.911432509E0,-1.401835060E1,-1.683901978E1,3.538630009E0,2.219433808E1
1.913446375E0,-1.280688381E1,-1.740165710E1,3.883395195E0,2.195255569E1
1.915460275E0,-1.151162148E1,-1.799781227E1,4.132391930E0,2.176040759E1
1.917474175E0,-1.081490803E1,-1.829229927E1,4.218583584E0,2.166487701E1
1.919516375E0,-8.447042465E0,-1.909675217E1,4.335899353E0,2.132694289E1
1.921558641E0,-7.573159218E0,-1.931941223E1,4.321534157E0,2.119594506E1
1.923600974E0,-5.698499203E0,-1.968811989E1,4.204218388E0,2.092296370E1
1.925643274E0,-3.560178041E0,-1.996584702E1,3.933673382E0,2.065874394E1
1.927685574E0,-1.125274777E0,-2.016695976E1,3.505111217E0,2.050020278E1
1.929727840E0,2.250549644E-1,-2.023639107E1,3.229778051E0,2.049374635E1
1.931770140E0,3.184288263E0,-2.026512146E1,2.564189911E0,2.067341069E1
1.933812473E0,6.505345345E0,-2.009034538E1,1.793257117E0,2.119333071E1
1.935854806E0,8.279448509E0,-1.991796303E1,1.379060149E0,2.161426209E1
1.937897106E0,1.202158642E1,-1.933856583E1,4.812345505E-1,2.277565048E1
1.939939472E0,1.591246319E1,-1.834497261E1,-4.118026793E-1,2.428814703E1
1.941981905E0,1.788289070E1,-1.771290207E1,-8.738836050E-1,2.518547899E1
1.944023171E0,2.168727684E1,-1.613991165E1,-1.757344007E0,2.709101295E1
1.946065704E0,2.559251976E1,-1.408778191E1,-2.492363930E0,2.931986604E1
1.948108270E0,2.752942848E1,-1.287631607E1,-2.794033289E0,3.052008470E1
1.950150870E0,3.110397148E1,-1.019241619E1,-3.217807055E0,3.288915736E1
1.952193503E0,3.442981720E1,-7.300220490E0,-3.306392431E0,3.535021588E1
1.954236236E0,3.750876236E1,-5.801449776E0,-3.306392431E0,3.809850790E1
1.956278936E0,3.895964813E1,-2.762908697E0,-3.301604033E0,3.919679115E1
1.958321702E0,4.282867813E1,1.728613615E0,-3.208230257E0,4.298344468E1
1.960362802E0,4.396113586E1,3.162740469E0,-3.100491285E0,4.418367843E1
1.962403835E0,4.501967239E1,4.534617901E0,-2.937685490E0,4.534273545E1
1.964444835E0,4.687278366E1,7.053617477E0,-2.410961151E0,4.746181730E1
1.966498735E0,4.834282303E1,9.115025520E0,-1.685518026E0,4.922350251E1
1.968552701E0,4.940105820E1,1.068083286E1,-7.493851185E-1,5.054805950E1
1.970606701E0,4.977934265E1,1.126741219E1,-1.747767180E-1,5.103888791E1
1.972660701E0,5.018156815E1,1.204552841E1,1.206677675E0,5.162112559E1
1.974714834E0,4.994215012E1,1.248366737E1,2.964021683E0,5.156399649E1
1.976769000E0,4.956147003E1,1.261295414E1,4.007893562E0,5.129804221E1
1.978823233E0,4.853675461E1,1.265844345E1,6.251559734E0,5.054834060E1
1.980849133E0,4.729416275E1,1.244536018E1,8.499714851E0,4.963738483E1
1.982875033E0,4.602284241E1,1.227058315E1,9.569923401E0,4.858243168E1
1.984900966E0,4.540274429E1,1.182765579E1,1.150922680E1,4.830905642E1
1.986926899E0,4.411705780E1,1.128177738E1,1.308221722E1,4.737866289E1
1.988952899E0,4.269460297E1,1.069998646E1,1.427931786E1,4.627329415E1
1.990978999E0,4.193324661E1,1.041507626E1,1.477761173E1,4.566452445E1
1.993005099E0,4.033870697E1,9.950601578E0,1.561079407E1,4.438381060E1
1.995031232E0,3.871783447E1,9.538799286E0,1.624525642E1,4.305772584E1
1.997057465E0,3.789662170E1,9.354445457E0,1.647988892E1,4.237034724E1
1.999083731E0,3.634038925E1,9.055170059E0,1.678874016E1,4.104243891E1
2.001138464E0,3.491823578E1,8.772654533E0,1.695872879E1,3.979750168E1
2.003193264E0,3.367055511E1,8.569147110E0,1.696591187E1,3.866495480E1
2.005248097E0,3.258598328E1,8.420706749E0,1.681268311E1,3.762208024E1
2.007302963E0,3.164027405E1,8.360851288E0,1.653495598E1,3.666627259E1
2.009357929E0,3.123086548E1,8.272266388E0,1.634820747E1,3.620857961E1
2.011412862E0,3.051739311E1,8.226776123E0,1.587654972E1,3.537026942E1
2.013467795E0,2.995236015E1,8.200440407E0,1.527560520E1,3.460831137E1
2.015522661E0,2.970336342E1,8.212410927E0,1.495717621E1,3.425566540E1
2.017577627E0,2.928916740E1,8.253112793E0,1.427452946E1,3.361147705E1
2.019632560E0,2.898031425E1,8.296208382E0,1.353232765E1,3.304254196E1
2.021688360E0,2.887018204E1,8.322544098E0,1.315404320E1,3.279910065E1
2.023744293E0,2.873131752E1,8.368034363E0,1.241662884E1,3.239884685E1
2.025800259E0,2.866427994E1,8.478167534E0,1.170076275E1,3.210028221E1
2.027843392E0,2.866906929E1,8.521263123E0,1.136078644E1,3.199367012E1
2.029886525E0,2.867625237E1,8.638579369E0,1.069519806E1,3.180156859E1
2.031929658E0,2.865470314E1,8.727164268E0,1.004876423E1,3.159482665E1
2.033972791E0,2.854696465E1,8.763077736E0,9.421483040E0,3.131269814E1
2.036015891E0,2.846077347E1,8.798990250E0,9.131784439E0,3.115810236E1
2.038058957E0,2.816868019E1,8.741529465E0,8.590695381E0,3.071952031E1
2.040101957E0,2.777603149E1,8.593089104E0,8.126219749E0,3.018914628E1
2.042144923E0,2.753421783E1,8.492532730E0,7.934683800E0,2.988671061E1
2.044187856E0,2.693327332E1,8.226776123E0,7.621043205E0,2.917466977E1
2.046230722E0,2.625092506E1,7.855675220E0,7.448660851E0,2.839551458E1
2.048273655E0,2.587503624E1,7.640196800E0,7.395988464E0,2.797482355E1
2.050316521E0,2.502509308E1,7.170933247E0,7.379229069E0,2.705791176E1
2.052359354E0,2.412218094E1,6.603507519E0,7.489362240E0,2.610701958E1
2.054402187E0,2.364812851E1,6.306626320E0,7.577947617E0,2.562094471E1
2.056445020E0,2.267129517E1,5.710470200E0,7.798214436E0,2.464567392E1
2.058487820E0,2.171121979E1,5.099948883E0,8.018480301E0,2.369984324E1
2.060530586E0,2.071523094E1,4.515464306E0,8.241141319E0,2.274701345E1
2.062544952E0,2.022442055E1,4.228160381E0,8.351274490E0,2.228560774E1
2.064559285E0,1.930025864E1,3.672705412E0,8.561964989E0,2.143119206E1
2.066573585E0,1.841201019E1,3.162740469E0,8.734347343E0,2.062265429E1
2.068587885E0,1.799062920E1,2.944868088E0,8.798990250E0,2.024246073E1
2.070602085E0,1.718139076E1,2.501940727E0,8.904335022E0,1.951274143E1
2.072616385E0,1.644397545E1,2.106897593E0,8.992920876E0,1.886043403E1
2.074630718E0,1.609681702E1,1.927332401E0,9.007286072E0,1.854597883E1
2.076645018E0,1.545517063E1,1.613691926E0,9.036016464E0,1.797542474E1
2.078659251E0,1.487816811E1,1.323993564E0,9.033622742E0,1.745620763E1
2.080673517E0,1.437987423E1,1.074996591E0,8.988132477E0,1.699184881E1
2.082688750E0,1.415242577E1,9.648633003E-1,8.957007408E0,1.677647454E1
2.084702183E0,1.374301720E1,7.637503147E-1,8.882787704E0,1.638162854E1
2.086715616E0,1.339825153E1,6.775590777E-1,8.839692116E0,1.606587648E1
2.088729049E0,1.324981117E1,5.363011956E-1,8.717587471E0,1.586951311E1
2.090742482E0,1.301517963E1,4.165911078E-1,8.605060577E0,1.560818749E1
2.092755948E0,1.278054810E1,3.112462163E-1,8.461407661E0,1.533084158E1
2.094769414E0,1.267759705E1,2.633621991E-1,8.399158478E0,1.520975640E1
2.096782880E0,1.248845577E1,1.915361285E-1,8.284236908E0,1.498755466E1
2.098796380E0,1.231607246E1,1.508347094E-1,8.171710014E0,1.478124611E1
2.100809913E0,1.222748756E1,1.436520964E-1,8.109460831E0,1.467294936E1
2.102823546E0,1.209820080E1,1.675941199E-1,7.929895401E0,1.446643672E1
2.104837212E0,1.201679802E1,2.178723514E-1,7.774271965E0,1.431398643E1
2.106850912E0,1.198806763E1,2.513911724E-1,7.692869186E0,1.424630476E1
2.108864578E0,1.196173096E1,3.327940404E-1,7.508515835E0,1.412698019E1
2.110878311E0,1.199524975E1,4.477157295E-1,7.305008888E0,1.405167680E1
2.112892077E0,1.208622932E1,5.243301988E-1,7.216423035E0,1.408646950E1
2.114905810E0,1.214608479E1,6.727706790E-1,7.034463882E0,1.405217699E1
2.116919510E0,1.230889034E1,8.690952063E-1,6.826168537E0,1.410179722E1
2.118933176E0,1.253633976E1,1.106121182E0,6.613084316E0,1.421675782E1
2.120946842E0,1.266562653E1,1.216254473E0,6.517316341E0,1.429590090E1
2.122960442E0,1.297447872E1,1.479616642E0,6.366481781E0,1.452785097E1
2.124973942E0,1.330248356E1,1.745373011E0,6.220435143E0,1.478838088E1
2.126988508E0,1.347007847E1,1.874659896E0,6.162974358E0,1.493116260E1
2.129002008E0,1.383639050E1,2.149993181E0,6.083965778E0,1.526704989E1
2.131015474E0,1.420509815E1,2.442085743E0,6.088754177E0,1.564677359E1
2.133028840E0,1.439663410E1,2.580949545E0,6.100725174E0,1.584749891E1
2.135042140E0,1.472733307E1,2.837129116E0,6.179733753E0,1.622136709E1
2.137055440E0,1.496675301E1,3.069366693E0,6.282684326E0,1.651958927E1
2.139068740E0,1.506491566E1,3.169923067E0,6.337751389E0,1.664833892E1
2.141081940E0,1.519420242E1,3.320757866E0,6.464643955E0,1.684288697E1
2.143093373E0,1.518462563E1,3.335123062E0,6.529287338E0,1.686201335E1
2.145106506E0,1.512237644E1,3.318363667E0,6.639420509E0,1.684576242E1
2.147119639E0,1.506012726E1,3.275267839E0,6.677727699E0,1.679663239E1
2.149132672E0,1.486859131E1,3.177105665E0,6.723217487E0,1.662439958E1
2.151145672E0,1.459535313E1,3.033453465E0,6.718429089E0,1.635125262E1
2.153158638E0,1.446367168E1,2.940079689E0,6.687304497E0,1.620376217E1
2.155171538E0,1.421467495E1,2.743755102E0,6.584353924E0,1.590405271E1
2.157184404E0,1.394412994E1,2.494758129E0,6.428730965E0,1.555606505E1
2.159197237E0,1.380047798E1,2.360682964E0,6.316203594E0,1.535970196E1
2.161210003E0,1.351317406E1,2.114080191E0,6.069600582E0,1.496379829E1
2.163251103E0,1.320432186E1,1.855506301E0,5.801449776E0,1.454145244E1
2.165292203E0,1.286913300E1,1.577778935E0,5.518934250E0,1.409122442E1
2.167333303E0,1.252915668E1,1.285686255E0,5.260360241E0,1.364932768E1
2.169374369E0,1.218199730E1,1.007958889E0,4.989815712E0,1.320285197E1
2.171415369E0,1.199524975E1,8.906430602E-1,4.865017891E0,1.297488577E1
2.173456369E0,1.159541798E1,6.871358752E-1,4.625597477E0,1.250288070E1
2.175497369E0,1.120276928E1,4.788403511E-1,4.429273129E0,1.205610999E1
2.177538369E0,1.100165653E1,3.711012602E-1,4.333505154E0,1.183019144E1
2.179579335E0,1.061379528E1,1.675941199E-1,4.139574528E0,1.139371824E1
2.181620335E0,1.023072338E1,-3.591302410E-2,3.952826977E0,1.096785447E1
2.183661368E0,1.002961063E1,-1.508347094E-1,3.849876404E0,1.074417930E1
2.185702501E0,9.675268173E0,-3.687070608E-1,3.629609823E0,1.034025273E1
2.187742567E0,9.323320389E0,-5.889736414E-1,3.378218651E0,9.933959647E0
2.189783667E0,9.148544312E0,-6.775590777E-1,3.246537447E0,9.731133270E0
2.191824800E0,8.751106262E0,-8.690952063E-1,3.004723072E0,9.293306625E0
2.193865966E0,8.356062889E0,-1.036689281E0,2.760514498E0,8.861092030E0
2.195907166E0,7.987356186E0,-1.182735682E0,2.499546528E0,8.452482202E0
2.197948399E0,7.810185432E0,-1.249773264E0,2.355894566E0,8.252949103E0
2.199989665E0,7.479785442E0,-1.343147159E0,2.049436569E0,7.870922742E0
2.202031031E0,7.130231857E0,-1.424550056E0,1.723825216E0,7.472691789E0
2.204072397E0,6.953061104E0,-1.458068848E0,1.549048543E0,7.271215501E0
2.206113730E0,6.622661114E0,-1.489193439E0,1.242590666E0,6.900823783E0
2.208155030E0,6.277895927E0,-1.501164436E0,9.672574997E-1,6.526948675E0
2.210208596E0,5.945102215E0,-1.510741234E0,6.751648784E-1,6.171096097E0
2.212262196E0,5.765536785E0,-1.520318031E0,5.410895944E-1,5.987116108E0
2.214315796E0,5.392041683E0,-1.551442742E0,3.040636182E-1,5.619033972E0
2.216369462E0,5.020940304E0,-1.632845521E0,1.268926859E-1,5.281299819E0
2.218423195E0,4.850652695E0,-1.666364431E0,8.140286058E-2,5.129544659E0
2.220476995E0,4.510675907E0,-1.752555609E0,3.591302410E-2,4.839311733E0
2.222530861E0,4.156333923E0,-1.869871497E0,2.873042040E-2,4.557670077E0
2.224556394E0,3.809175014E0,-1.924938202E0,6.464344263E-2,4.268416585E0
2.226581927E0,3.622427225E0,-2.059013367E0,9.097966552E-2,4.167708285E0
2.228607460E0,3.260902643E0,-2.190694571E0,1.508347094E-1,3.931333089E0
2.230633026E0,2.868253708E0,-2.291250944E0,2.011129409E-1,3.676568595E0
2.232658659E0,2.686294317E0,-2.346317768E0,2.442085743E-1,3.575055532E0
2.234684292E0,2.331952572E0,-2.418143749E0,3.471592367E-1,3.377268353E0
2.236709892E0,1.965639591E0,-2.415749550E0,4.860229492E-1,3.152110911E0
2.238735492E0,1.766920805E0,-2.401384354E0,5.554547906E-1,3.032686263E0
2.240761125E0,1.367089152E0,-2.339135170E0,7.062895298E-1,2.799880532E0
2.242786758E0,9.002198577E-1,-2.348711967E0,8.020575643E-1,2.640102277E0
2.245719758E0,3.950432837E-1,-2.403778553E0,8.571242094E-1,2.582416008E0
2.247869096E0,-1.771709323E-1,-2.540247917E0,8.451532125E-1,2.683008195E0
2.249881096E0,-7.924807668E-1,-2.726995707E0,7.709329724E-1,2.942595622E0
2.251896096E0,-1.101332784E0,-2.849100113E0,7.350199223E-1,3.141744681E0
2.253910596E0,-1.735796213E0,-3.090914488E0,6.823474765E-1,3.610033094E0
2.255924596E0,-2.387019157E0,-3.385401249E0,6.631938815E-1,4.195071894E0
2.257938846E0,-2.707842112E0,-3.538630009E0,6.392518282E-1,4.501439119E0
2.259953046E0,-3.392583847E0,-3.842693806E0,5.937620401E-1,5.160278501E0
2.261967546E0,-4.065354347E0,-4.158728123E0,5.315127969E-1,5.839917073E0
2.263981974E0,-4.762067318E0,-4.496310711E0,4.501099288E-1,6.564807240E0
2.265996224E0,-5.133467674E0,-4.654327869E0,3.806780577E-1,6.939753170E0
2.268010557E0,-5.837363243E0,-4.949114323E0,2.202665508E-1,7.656177869E0
2.270024857E0,-6.543652534E0,-5.085583687E0,-7.182605099E-3,8.287496698E0
2.272039038E0,-6.924330711E0,-5.322609425E0,-1.316810995E-1,8.734636043E0
2.274053038E0,-7.668927193E0,-5.499780655E0,-3.519476354E-1,9.443722713E0
2.276067038E0,-8.382399559E0,-5.633855820E0,-5.722141862E-1,1.011594696E1
2.278081109E0,-8.724770546E0,-5.684134007E0,-6.943184733E-1,1.043614290E1
2.280095175E0,-9.440636635E0,-5.815814972E0,-9.433154464E-1,1.112830481E1
2.282109237E0,-1.013016701E1,-5.899612427E0,-1.235408068E0,1.178778790E1
2.284123295E0,-1.046296024E1,-5.949890614E0,-1.391031146E0,1.211650540E1
2.286137183E0,-1.118600941E1,-6.055235386E0,-1.733402014E0,1.283734258E1
2.288150919E0,-1.196651936E1,-6.155791759E0,-2.111685991E0,1.362169503E1
2.290164619E0,-1.239268684E1,-6.206069946E0,-2.305616140E0,1.405026182E1
2.292178333E0,-1.328572464E1,-6.299443722E0,-2.736572504E0,1.495601215E1
2.294191969E0,-1.423861694E1,-6.428730965E0,-3.236960649E0,1.595445732E1
2.296205534E0,-1.529236507E1,-6.476614952E0,-3.514688015E0,1.697515840E1
2.298219075E0,-1.582387733E1,-6.553229332E0,-4.113238335E0,1.761416016E1
2.300232555E0,-1.687732697E1,-6.625055313E0,-4.797980309E0,1.875516298E1
2.302246055E0,-1.797387123E1,-6.713640690E0,-5.585971832E0,1.998339560E1
2.304259536E0,-1.851974869E1,-6.756736279E0,-6.000168800E0,2.060671255E1
2.306273000E0,-1.963305283E1,-6.850110531E0,-6.866869926E0,2.189828030E1
2.308286482E0,-2.060988617E1,-6.955455303E0,-7.690474987E0,2.307139293E1
2.310299982E0,-2.105281448E1,-6.993762493E0,-8.073547363E0,2.360753860E1
2.312313448E0,-2.179980469E1,-7.070376873E0,-8.758289337E0,2.453424842E1
2.314326881E0,-2.235525894E1,-7.115866661E0,-9.320926666E0,2.524426340E1
2.316340314E0,-2.256595039E1,-7.135020256E0,-9.541193008E0,2.551793478E1
2.318353714E0,-2.281973457E1,-7.190086842E0,-9.847650528E0,2.587303337E1
2.320367080E0,-2.284846497E1,-7.249941826E0,-9.996091843E0,2.597182820E1
2.322380346E0,-2.276945686E1,-7.276278019E0,-1.000088024E1,2.591158029E1
2.324393579E0,-2.218527222E1,-7.403171062E0,-9.711181641E0,2.532390756E1
2.326406745E0,-2.192669678E1,-7.448660851E0,-9.519645691E0,2.503769626E1
2.328419811E0,-2.129702187E1,-7.527669430E0,-8.980949402E0,2.430815500E1
2.330432811E0,-2.095944023E1,-7.592312813E0,-8.626607895E0,2.390313185E1
2.332445811E0,-2.020526695E1,-7.719205379E0,-7.781454563E0,2.298673486E1
2.334458844E0,-1.941278648E1,-7.939472198E0,-6.876446724E0,2.207208684E1
2.336471844E0,-1.900337791E1,-8.102277756E0,-6.452672958E0,2.164283404E1
2.338484777E0,-1.816301346E1,-8.473379135E0,-5.700893402E0,2.083730783E1
2.340497677E0,-1.731785965E1,-8.889969826E0,-5.011363506E0,2.010108431E1
2.342510577E0,-1.689408493E1,-9.088688850E0,-4.675876141E0,1.974533333E1
2.344523443E0,-1.600104904E1,-9.481337547E0,-4.017470360E0,1.902812130E1
2.346536443E0,-1.510322285E1,-9.838073730E0,-3.311181068E0,1.832645506E1
2.348549509E0,-1.466717911E1,-1.001524544E1,-2.956839085E0,1.800483773E1
2.350562609E0,-1.383878517E1,-1.040071106E1,-2.286462545E0,1.746180622E1
2.352575709E0,-1.309418869E1,-1.082687950E1,-1.702277422E0,1.707562138E1
2.354588809E0,-1.238311005E1,-1.131769085E1,-1.151610970E0,1.681540212E1
2.356601942E0,-1.202637482E1,-1.158344746E1,-9.002198577E-1,1.672185223E1
2.358615075E0,-1.125065327E1,-1.213171959E1,-4.477157295E-1,1.655162435E1
2.360628308E0,-1.042704773E1,-1.273266411E1,-4.070143029E-2,1.645739093E1
2.362641508E0,-9.950601578E0,-1.302954483E1,1.532289088E-1,1.639533438E1
2.364654708E0,-8.870816231E0,-1.361851883E1,5.291185975E-1,1.626146987E1
2.366667808E0,-7.561188221E0,-1.423143387E1,8.499416113E-1,1.613777178E1
2.368680841E0,-6.804620743E0,-1.453549767E1,9.433154464E-1,1.607710794E1
2.370693807E0,-5.097554684E0,-1.512716484E1,9.289502501E-1,1.598996962E1
2.372706773E0,-3.086126089E0,-1.566107178E1,6.536170840E-1,1.597562389E1
2.374719739E0,-1.956062794E0,-1.588612652E1,4.596867263E-1,1.601269838E1
2.376732705E0,4.764461517E-1,-1.622370911E1,3.830722719E-2,1.623074877E1
2.378745638E0,3.052607059E0,-1.637933159E1,-3.950432837E-1,1.666604249E1
2.380758604E0,5.763142586E0,-1.637693787E1,-9.313444495E-1,1.738635410E1
2.382771570E0,7.144597054E0,-1.626680565E1,-1.216254473E0,1.780824270E1
2.384784570E0,1.135360336E1,-1.587894440E1,-2.027888775E0,1.962543037E1
2.386797603E0,1.277575970E1,-1.568262005E1,-2.262520552E0,2.035395801E1
2.388810669E0,1.424819374E1,-1.547911263E1,-2.463633537E0,2.118214915E1
2.390823735E0,1.739447403E1,-1.501703167E1,-2.755726099E0,2.314461046E1
2.392836801E0,2.057636833E1,-1.442536449E1,-2.920926094E0,2.529841663E1
2.394849834E0,2.240314293E1,-1.398722553E1,-2.947262287E0,2.657498158E1
2.396862800E0,2.587024689E1,-1.284997940E1,-2.760514498E0,2.901744449E1
2.398875766E0,2.914790916E1,-1.127698898E1,-2.286462545E0,3.133686328E1
2.400888732E0,3.078075409E1,-1.033367348E1,-1.956062794E0,3.252792357E1
2.402901665E0,3.399856186E1,-8.207622528E0,-1.221042871E0,3.499654585E1
2.404914598E0,3.720709229E1,-5.832574844E0,-6.296750307E-1,3.766673780E1
2.407847598E0,4.038659286E1,-3.258508444E0,-1.053448766E-1,4.051796957E1
2.409841096E0,4.339610291E1,-5.147533417E-1,5.147533417E-1,4.340220835E1
2.411853096E0,4.610184860E1,2.308010340E0,1.247379065E0,4.617643675E1
2.413867096E0,4.732049942E1,3.696647406E0,1.659181833E0,4.749366012E1
2.415880096E0,4.949682999E1,6.320991993E0,2.549824715E0,4.996391422E1
2.417893429E0,5.132120895E1,8.602665901E0,3.593696833E0,5.216116377E1
2.419906679E0,5.207299042E1,9.605836868E0,4.204218388E0,5.311820672E1
2.421919879E0,5.319347382E1,1.130571938E1,5.674557209E0,5.467691969E1
2.423933045E0,5.389527512E1,1.272787571E1,7.628225803E0,5.590070956E1
2.425946045E0,5.413469696E1,1.329051304E1,9.998485565E0,5.663190678E1
2.427959170E0,5.407962799E1,1.402074432E1,1.123149967E1,5.698538427E1
2.429972392E0,5.362682724E1,1.423382854E1,1.363527775E1,5.713457162E1
2.431985592E0,5.268350983E1,1.396807194E1,1.574486923E1,5.673235539E1
2.433998773E0,5.205383682E1,1.369513321E1,1.669297218E1,5.635436027E1
2.436011939E0,5.056464386E1,1.294095993E1,1.850059509E1,5.537620131E1
2.438025015E0,4.885278702E1,1.201919174E1,1.992753983E1,5.411249960E1
2.440038086E0,4.794298935E1,1.154514027E1,2.045905113E1,5.338907439E1
2.442051152E0,4.603720856E1,1.061379528E1,2.126589775E1,5.181038148E1
2.444064277E0,4.404253769E1,9.797372818E0,2.184529495E1,5.012933823E1
2.446077453E0,4.206971359E1,9.119813919E0,2.223794365E1,4.845160416E1
2.448090508E0,4.110724640E1,8.818143845E0,2.236244202E1,4.761978770E1
2.450103560E0,3.926849747E1,8.274660110E0,2.249412346E1,4.600511367E1
2.452116560E0,3.842334747E1,8.037634850E0,2.250130653E1,4.524672365E1
2.454151893E0,3.611054611E1,7.391200066E0,2.233850098E1,4.310000006E1
2.456186302E0,3.544974899E1,7.187692642E0,2.223315620E1,4.245775387E1
2.458219823E0,3.423798370E1,6.830956936E0,2.194345665E1,4.123611027E1
2.460252531E0,3.323241806E1,6.541258335E0,2.153883743E1,4.013854991E1
2.462284491E0,3.280146027E1,6.416759968E0,2.130181122E1,3.963430036E1
2.464315798E0,3.205447006E1,6.203675747E0,2.075593376E1,3.868828544E1
2.466346464E0,3.148704529E1,6.062417984E0,2.014062309E1,3.786596930E1
2.468376499E0,3.126438332E1,6.002563000E0,1.980064583E1,3.749077222E1
2.470405947E0,3.091243553E1,5.952284813E0,1.912308693E1,3.683341986E1
2.472434847E0,3.066822815E1,5.940313816E0,1.838806725E1,3.624842842E1
2.474463713E0,3.057724762E1,5.954679012E0,1.800020599E1,3.597823912E1
2.476492579E0,3.045993233E1,6.004957199E0,1.717660141E1,3.548101780E1
2.478521445E0,3.034261513E1,6.095936775E0,1.631229401E1,3.498464911E1
2.480550311E0,3.023248291E1,6.215646744E0,1.541207504E1,3.449883106E1
2.482579177E0,3.014629173E1,6.265924931E0,1.495238781E1,3.422914871E1
2.484608043E0,2.992362976E1,6.349722385E0,1.405186939E1,3.366300084E1
2.486636943E0,2.957886505E1,6.385635376E0,1.321868706E1,3.302149731E1
2.488694109E0,2.915987968E1,6.332962990E0,1.245014858E1,3.233281929E1
2.490751275E0,2.863794518E1,6.191704750E0,1.171991634E1,3.155670374E1
2.492808475E0,2.833627510E1,6.093542576E0,1.138472843E1,3.113981036E1
2.494865675E0,2.764913940E1,5.842151642E0,1.078857231E1,3.024894937E1
2.496922875E0,2.687581253E1,5.504569054E0,1.026663589E1,2.929186563E1
2.498980141E0,2.644725037E1,5.313032627E0,1.003918743E1,2.878316612E1
2.501037407E0,2.549675179E1,4.857835293E0,9.658509254E0,2.769421810E1
2.503094707E0,2.447652245E1,4.355052948E0,9.354445457E0,2.656261070E1
2.505151973E0,2.340631485E1,3.842693806E0,9.126996040E0,2.541503349E1
2.507209206E0,2.231455803E1,3.299209833E0,8.978555679E0,2.427835966E1
2.509266472E0,2.176149750E1,3.014299870E0,8.913911819E0,2.370878742E1
2.511323738E0,2.067453003E1,2.461239338E0,8.796596527E0,2.260252202E1
2.513381038E0,2.014541245E1,2.178723574E0,8.736741066E0,2.206615335E1
2.515422738E0,1.910632896E1,1.608903527E0,8.617031097E0,2.102126547E1
2.517464338E0,1.813667679E1,1.034295082E0,8.463802338E0,2.004107685E1
2.519505904E0,1.767220116E1,7.685387731E-1,8.387187958E0,1.957657446E1
2.521547404E0,1.677198219E1,2.633621991E-1,8.202834129E0,1.867231196E1
2.523588870E0,1.592203999E1,-1.651999205E-1,7.977779388E0,1.780964942E1
2.525630303E0,1.549826622E1,-3.734954596E-1,7.867646217E0,1.738492484E1
2.527671736E0,1.471296787E1,-7.278373241E-1,7.654561996E0,1.660100871E1
2.529713102E0,1.397525501E1,-1.024718285E0,7.424718857E0,1.585825496E1
2.531754402E0,1.330727196E1,-1.288080573E0,7.214028835E0,1.519160461E1
2.533795702E0,1.300560284E1,-1.405396342E0,7.091924667E0,1.488006181E1
2.535837002E0,1.244057083E1,-1.616086125E0,6.833351135E0,1.428545501E1
2.537878335E0,1.193539429E1,-1.783680320E0,6.598719120E0,1.375420831E1
2.539919635E0,1.169118595E1,-1.853112102E0,6.471826553E0,1.349082623E1
2.541960935E0,1.125065327E1,-1.965639591E0,6.196493149E0,1.299374716E1
2.544002235E0,1.087236881E1,-2.054224968E0,5.913977623E0,1.254605018E1
2.546043568E0,1.066886234E1,-2.092532396E0,5.765536785E0,1.230628823E1
2.548084934E0,1.029297256E1,-2.126051188E0,5.468656063E0,1.184785116E1
2.550098034E0,9.955389977E0,-2.161964178E0,5.150227070E0,1.141528438E1
2.552111134E0,9.780612946E0,-2.171540976E0,4.987421513E0,1.119153042E1
2.554124234E0,9.462183952E0,-2.171540976E0,4.690241337E0,1.078178460E1
2.556137334E0,9.143755913E0,-2.169146776E0,4.426878929E0,1.038800881E1
2.558150434E0,8.827720642E0,-2.178723574E0,4.170699596E0,1.000351055E1
2.560163467E0,8.679280281E0,-2.176329374E0,4.053383350E0,9.823249581E0
2.562176500E0,8.394370079E0,-2.173935175E0,3.813963413E0,9.473001641E0
2.564189466E0,8.126219749E0,-2.145204782E0,3.552995205E0,9.124753471E0
2.566202399E0,8.011298180E0,-2.130839586E0,3.416525841E0,8.966271504E0
2.568215332E0,7.769483566E0,-2.020706177E0,2.968810081E0,8.559320162E0
2.570230132E0,7.707234383E0,-1.975216389E0,2.779668093E0,8.427899876E0
2.572242998E0,7.671321392E0,-1.927332401E0,2.590526342E0,8.323136958E0
2.574255864E0,7.616254807E0,-1.807622313E0,2.233790159E0,8.140310447E0
2.576268730E0,7.628225803E0,-1.707065821E0,1.833958507E0,8.029153531E0
2.578281630E0,7.647379398E0,-1.635239720E0,1.616086125E0,7.985496539E0
2.580294530E0,7.676109791E0,-1.467645645E0,1.189918280E0,7.905223006E0
2.582307530E0,7.664138794E0,-1.276109457E0,7.565677166E-1,7.806399523E0
2.584320563E0,7.635408401E0,-1.194706678E0,5.506663918E-1,7.747904167E0
2.586333596E0,7.604283810E0,-1.051054597E0,1.771709323E-1,7.678622114E0
2.588346662E0,7.494150639E0,-8.978256583E-1,-1.484405100E-1,7.549199911E0
2.590359828E0,7.369652271E0,-7.900865674E-1,-3.974374831E-1,7.422531100E0
2.592373094E0,7.305008888E0,-7.565677166E-1,-4.955997467E-1,7.360785874E0
2.594386360E0,7.130231857E0,-7.206547260E-1,-6.392518282E-1,7.195011638E0
2.596399660E0,6.969820499E0,-7.062895298E-1,-6.799532771E-1,7.038435846E0
2.598413026E0,6.886023521E0,-7.062895298E-1,-6.560112834E-1,6.953165872E0
2.600426392E0,6.675333500E0,-7.254431248E-1,-5.674257874E-1,6.738569365E0
2.602439758E0,6.421548367E0,-8.044517636E-1,-4.118026793E-1,6.484829027E0
2.604453158E0,6.268319130E0,-8.523358107E-1,-3.184288144E-1,6.334011206E0
2.606466524E0,5.925948620E0,-9.504981041E-1,-9.816227108E-2,6.002495275E0
2.608479857E0,5.502174854E0,-1.089361787E0,1.149216816E-1,5.610155454E0
2.610493157E0,5.272331238E0,-1.173158884E0,2.130839527E-1,5.405477150E0
2.612506390E0,4.745307922E0,-1.347935557E0,3.998316824E-1,4.949216394E0
2.614519556E0,4.180276394E0,-1.551442742E0,5.578489900E-1,4.493648941E0
2.616532756E0,3.555389643E0,-1.776497602E0,6.823474765E-1,4.032658840E0
2.618545989E0,3.220201254E0,-1.893813491E0,7.182605267E-1,3.804224473E0
2.620559289E0,2.547430515E0,-2.128445387E0,7.757213712E-1,3.409021214E0
2.622572622E0,1.865083098E0,-2.375048161E0,7.948749661E-1,3.122693539E0
2.624586055E0,1.537077546E0,-2.501940727E0,7.900865674E-1,3.040814294E0
2.626599588E0,9.026140571E-1,-2.734178305E0,7.541735172E-1,2.976444327E0
2.628613154E0,3.136404157E-1,-2.923320293E0,6.895300746E-1,3.019871450E0
2.630624854E0,2.154781483E-2,-2.995146275E0,6.631938815E-1,3.067766555E0
2.632638487E0,-5.506663918E-1,-3.090914488E0,6.344634295E-1,3.203050060E0
2.634652153E0,-1.101332784E0,-3.172317266E0,6.177040339E-1,3.414394385E0
2.636665786E0,-1.345541358E0,-3.196259260E0,6.081272364E-1,3.520848412E0
2.638679452E0,-1.836352706E0,-3.217807055E0,5.985504389E-1,3.752963646E0
2.640693152E0,-2.288856745E0,-3.244143248E0,5.889736414E-1,4.013753924E0
2.642706818E0,-2.726995707E0,-3.232172251E0,5.554547906E-1,4.265204927E0
2.644720451E0,-2.935291290E0,-3.227383852E0,5.363011956E-1,4.395402195E0
2.646734084E0,-3.339911461E0,-3.215412855E0,4.620809257E-1,4.659120859E0
2.648747650E0,-3.734954596E0,-3.193865061E0,3.423708379E-1,4.926243767E0
2.650789416E0,-4.050989151E0,-3.143586874E0,1.987187415E-1,5.131485231E0
2.652831249E0,-4.362235546E0,-3.095702887E0,3.112462163E-2,5.349153584E0
2.654873082E0,-4.532223701E0,-3.083731890E0,-5.746084079E-2,5.482130589E0
2.656914882E0,-4.833893299E0,-3.038241863E0,-2.513911724E-1,5.714948431E0
2.658956615E0,-5.076006889E0,-2.997540474E0,-4.644751251E-1,5.913275909E0
2.660998415E0,-5.186140060E0,-2.975992680E0,-5.674257874E-1,6.006209552E0
2.663040315E0,-5.430348873E0,-2.947262287E0,-7.661445141E-1,6.225915297E0
2.665082181E0,-5.696105003E0,-2.952050686E0,-9.337386489E-1,6.483215508E0
2.667124114E0,-5.992986202E0,-2.964021683E0,-1.070208192E0,6.771015709E0
2.669166114E0,-6.158185959E0,-2.978386879E0,-1.144428372E0,6.935687349E0
2.671208214E0,-6.447884560E0,-3.035847664E0,-1.280897856E0,7.241014131E0
2.673250380E0,-6.783072472E0,-3.134010077E0,-1.422155857E0,7.606222360E0
2.675292580E0,-6.969820499E0,-3.227383852E0,-1.474828243E0,7.821094723E0
2.677334746E0,-7.467814445E0,-3.433285236E0,-1.606509328E0,8.374758046E0
2.679376879E0,-8.080730438E0,-3.665522814E0,-1.750161409E0,9.044187463E0
2.681418979E0,-8.415918350E0,-3.821146011E0,-1.824381709E0,9.421104348E0
2.683461079E0,-9.134179115E0,-4.158728123E0,-2.039859772E0,1.024154654E1
2.685503112E0,-9.962572098E0,-4.539406300E0,-2.327163935E0,1.119262008E1
2.687545078E0,-1.039113426E1,-4.714183331E0,-2.487575531E0,1.167849424E1
2.689587011E0,-1.186835670E1,-5.186140060E0,-3.014299870E0,1.329811804E1
2.691628944E0,-1.240465832E1,-5.308244228E0,-3.208230257E0,1.386887689E1
2.693670877E0,-1.356584644E1,-5.516540051E0,-3.646369219E0,1.509173324E1
2.695712777E0,-1.418833828E1,-5.609913826E0,-3.895366192E0,1.574655372E1
2.697770143E0,-1.546235275E1,-5.799055576E0,-4.491522312E0,1.711394668E1
2.699827509E0,-1.673606873E1,-5.988197803E0,-5.219658852E0,1.852564028E1
2.701884842E0,-1.792359161E1,-6.213252544E0,-6.033687592E0,1.990640674E1
2.703942175E0,-1.850777817E1,-6.352116585E0,-6.452672958E0,2.060398569E1
2.705999508E0,-1.962108231E1,-6.617872715E0,-7.297826290E0,2.195544075E1
2.708056874E0,-2.073917389E1,-6.845322132E0,-8.128614426E0,2.330335043E1
2.710114240E0,-2.183811188E1,-6.938695908E0,-8.559570312E0,2.446047578E1
2.712143340E0,-2.236244202E1,-7.137414455E0,-9.414299965E0,2.529131357E1
2.714172340E0,-2.330575752E1,-7.276278019E0,-1.020199299E1,2.646097535E1
2.716201340E0,-2.405514336E1,-7.391200066E0,-1.092025280E1,2.743231090E1
2.718230340E0,-2.433287048E1,-7.422324657E0,-1.123149967E1,2.780874097E1
2.720259340E0,-2.463005066E1,-7.431901455E0,-1.168160915E1,2.825477919E1
2.722288273E0,-2.455822372E1,-7.379229069E0,-1.178934860E1,2.822318399E1
2.724317073E0,-2.439272499E1,-7.333739281E0,-1.173428154E1,2.804428868E1
2.726345873E0,-2.383966446E1,-7.240365028E0,-1.138712215E1,2.739377736E1
2.728374573E0,-2.315971184E1,-7.182904243E0,-1.073350525E1,2.651743767E1
2.730403206E0,-2.280058098E1,-7.194875240E0,-1.033367348E1,2.604644947E1
2.733336206E0,-2.157475090E1,-7.427113056E0,-8.961795807E0,2.451419321E1
2.735517096E0,-2.062185860E1,-7.743147373E0,-7.987356186E0,2.343107428E1
2.737529096E0,-2.012386322E1,-7.941866398E0,-7.510910034E0,2.290102361E1
2.739542096E0,-1.906562614E1,-8.363245964E0,-6.627449512E0,2.184868578E1
2.741554596E0,-1.789486122E1,-8.810961723E0,-5.811026573E0,2.077563800E1
2.743567262E0,-1.725800514E1,-9.057564735E0,-5.437531471E0,2.023474657E1
2.745580262E0,-1.587894440E1,-9.593865395E0,-4.786009312E0,1.915956715E1
2.747593262E0,-1.433677864E1,-1.019002151E1,-4.237737179E0,1.809248951E1
2.749606262E0,-1.349162579E1,-1.052042198E1,-3.983951569E0,1.756630625E1
2.751619404E0,-1.061140156E1,-1.154274559E1,-3.366247654E0,1.603647224E1
2.753632404E0,-9.565135002E0,-1.184920311E1,-3.215412855E0,1.556387811E1
2.755645515E0,-8.480561256E0,-1.214129639E1,-3.078943491E0,1.512649630E1
2.757658615E0,-6.335357189E0,-1.263210773E1,-2.813186884E0,1.440905677E1
2.759671796E0,-4.266467571E0,-1.298884392E1,-2.528276920E0,1.390341670E1
2.761684962E0,-2.238578558E0,-1.329769516E1,-2.267308950E0,1.367408572E1
2.763698115E0,-1.225831270E0,-1.343177128E1,-2.157175779E0,1.365900982E1
2.765711186E0,8.212111592E-1,-1.374062252E1,-1.968033791E0,1.390511604E1
2.767724252E0,2.964021683E0,-1.403750420E1,-1.833958507E0,1.446375997E1
2.769737314E0,4.067748547E0,-1.416918468E1,-1.764526606E0,1.484674803E1
2.771750431E0,6.354510784E0,-1.436072063E1,-1.596932530E0,1.578481226E1
2.773763431E0,8.806173325E0,-1.447564316E1,-1.374271750E0,1.699945753E1
2.775776431E0,1.002003384E1,-1.449479675E1,-1.252167463E0,1.766545030E1
2.777789381E0,1.248845577E1,-1.443733597E1,-1.015141487E0,1.911618973E1
2.779802428E0,1.502660847E1,-1.422904015E1,-7.158663273E-1,2.070693145E1
2.781815473E0,1.633384323E1,-1.408299351E1,-5.195417404E-1,2.157301705E1
2.783828559E0,1.921167374E1,-1.370471001E1,-5.506663769E-2,2.359895160E1
2.785841684E0,2.271678352E1,-1.312531281E1,3.615244627E-1,2.623846013E1
2.787854764E0,2.645203781E1,-1.275421143E1,5.650315881E-1,2.937174619E1
2.789867840E0,2.843683052E1,-1.176780033E1,1.086967587E0,3.079473905E1
2.791880914E0,3.254049301E1,-1.040310574E1,1.857900500E0,3.421344894E1
2.793893985E0,3.664924240E1,-8.652944565E0,2.975992680E0,3.777428955E1
2.795907053E0,3.874895859E1,-7.594707012E0,3.636792421E0,3.965334318E1
2.797920153E0,4.302021408E1,-5.078401089E0,5.205293655E0,4.363054044E1
2.799933253E0,4.734204483E1,-1.982398987E0,7.345710278E0,4.794954196E1
2.801946419E0,4.943936539E1,-2.489969730E-1,8.729558945E0,5.020476122E1
2.803959619E0,5.332515717E1,3.483563423E0,1.222269917E1,5.481881042E1
2.805972785E0,5.670606995E1,7.185298443E0,1.619497871E1,5.940946236E1
2.807985951E0,5.821920395E1,8.861239433E0,1.821568489E1,6.164258632E1
2.809999084E0,6.088634491E1,1.169358063E1,2.208710861E1,6.581585820E1
2.812012184E0,6.310816574E1,1.377892971E1,2.570504761E1,6.952157190E1
2.814027117E0,6.464315033E1,1.521096230E1,2.940648270E1,7.262817279E1
2.816040150E0,6.511001587E1,1.569937897E1,3.117340469E1,7.387533977E1
2.818053216E0,6.535901642E1,1.632905388E1,3.455192184E1,7.571178462E1
2.820066216E0,6.471018219E1,1.645834160E1,3.766917419E1,7.666323351E1
2.822079216E0,6.404459381E1,1.631229401E1,3.909132767E1,7.678497790E1
2.824092216E0,6.207386780E1,1.566107178E1,4.150228882E1,7.629465387E1
2.826105249E0,5.937560272E1,1.466717911E1,4.318780899E1,7.487172488E1
2.828118315E0,5.777388382E1,1.406623459E1,4.373129272E1,7.381129026E1
2.830131381E0,5.420173264E1,1.267520332E1,4.423197937E1,7.109821797E1
2.832144414E0,5.036113358E1,1.115727901E1,4.401859665E1,6.781124907E1
2.834157547E0,4.841943741E1,1.037437534E1,4.366904068E1,6.602313759E1
2.836170680E0,4.468208694E1,8.767866135E0,4.254137421E1,6.231478869E1
2.838183846E0,4.115512848E1,7.230788231E0,4.095401764E1,5.850863577E1
2.840197012E0,3.951749802E1,6.507739544E0,4.005140305E1,5.664007600E1
2.842210212E0,3.652474213E1,5.234024048E0,3.806182098E1,5.301088579E1
2.844223412E0,3.397222519E1,4.194641590E0,3.591661835E1,4.961562834E1
2.846236612E0,3.188208771E1,3.387795448E0,3.377111435E1,4.656643468E1
2.848249912E0,3.099623299E1,3.095702887E0,3.271287537E1,4.517169524E1
2.850263312E0,2.955253029E1,2.703053713E0,3.066583252E1,4.267378387E1
2.852276745E0,2.854217720E1,2.547430515E0,2.863554955E1,4.051098591E1
2.854290145E0,2.817346954E1,2.547430515E0,2.761561966E1,3.953297658E1
2.856303545E0,2.772575378E1,2.724601507E0,2.559491348E1,3.783173896E1
2.858317878E0,2.754379463E1,3.038241863E0,2.360742760E1,3.640332642E1
2.860331344E0,2.754140091E1,3.227383852E0,2.264256477E1,3.579986746E1
2.862344810E0,2.764913940E1,3.658340216E0,2.075593376E1,3.476589060E1
2.864358276E0,2.788137627E1,4.106055737E0,1.891479111E1,3.394112784E1
2.866371809E0,2.802024078E1,4.328716755E0,1.802414894E1,3.359675025E1
2.868385375E0,2.832909203E1,4.721365929E0,1.630990028E1,3.302789122E1
2.870399041E0,2.859006119E1,5.030517101E0,1.469351482E1,3.253608887E1
2.872412774E0,2.876962471E1,5.222053051E0,1.313488960E1,3.205442979E1
2.874425540E0,2.883187485E1,5.279513836E0,1.237592793E1,3.181688020E1
2.876440240E0,2.886539268E1,5.286696434E0,1.092982960E1,3.131487233E1
2.878454973E0,2.867385674E1,5.143044472E0,9.636960983E0,3.068406726E1
2.880469773E0,2.849429131E1,5.013757706E0,9.062353134E0,3.031812408E1
2.882484606E0,2.800826836E1,4.673481941E0,8.025663376E0,2.950789390E1
2.884499472E0,2.731395149E1,4.216189384E0,7.089530468E0,2.853225616E1
2.886514338E0,2.690693665E1,3.964797974E0,6.670545101E0,2.800355396E1
2.888529204E0,2.598038101E1,3.392583847E0,5.880458832E0,2.685273950E1
2.890544137E0,2.498439217E1,2.731784105E0,5.159803867E0,2.565747595E1
2.892559103E0,2.395458603E1,2.377442360E0,4.544194698E0,2.449743108E1
2.895492103E0,2.284846497E1,1.276109457E0,4.031835556E0,2.323653383E1
2.897541096E0,2.166094208E1,4.596867263E-1,3.620033026E0,2.196616404E1
2.899555096E0,2.105760193E1,2.394201607E-2,3.445256233E0,2.133759505E1
2.901569096E0,1.983416557E1,-8.283938169E-1,3.117250681E0,2.009471602E1
2.903583596E0,1.862269974E1,-1.687912226E0,2.820369720E0,1.891053882E1
2.905597596E0,1.802893829E1,-2.116474390E0,2.676717520E0,1.834902985E1
2.907611846E0,1.689169121E1,-2.947262287E0,2.406172752E0,1.731488534E1
2.909626046E0,1.574965763E1,-3.739742994E0,2.207453966E0,1.633738798E1
2.911640379E0,1.517504883E1,-4.110844135E0,2.128445387E0,1.586541604E1
2.913655093E0,1.399201393E1,-4.833893299E0,2.023100376E0,1.494108140E1
2.915669843E0,1.280209541E1,-5.523722649E0,2.015917778E0,1.408790557E1
2.917684620E0,1.164569664E1,-6.143820763E0,2.106897593E0,1.333445917E1
2.919699220E0,1.110221291E1,-6.447884560E0,2.171540976E0,1.302113424E1
2.921713765E0,9.981725693E0,-7.024887085E0,2.327163935E0,1.242576269E1
2.923728265E0,8.877999306E0,-7.537246227E0,2.473210335E0,1.190570123E1
2.925742726E0,8.322544098E0,-7.781454563E0,2.545036316E0,1.167445867E1
2.927757154E0,7.225999832E0,-8.207622528E0,2.681505919E0,1.125924576E1
2.929771487E0,6.131849766E0,-8.631396294E0,2.817975283E0,1.095634831E1
2.931785924E0,5.590760231E0,-8.830115318E0,2.880224705E0,1.084081320E1
2.933800453E0,4.086902142E0,-9.445425034E0,2.935291290E0,1.070209130E1
2.935814953E0,3.615244627E0,-9.646537781E0,2.892195702E0,1.070002247E1
2.937829426E0,3.184288263E0,-9.828496933E0,2.815581083E0,1.070824638E1
2.939843926E0,2.365471363E0,-1.015171432E1,2.588132143E0,1.074016697E1
2.941875306E0,1.580173135E0,-1.045338345E1,2.293645144E0,1.081808581E1
2.943905987E0,8.092401624E-1,-1.074787045E1,1.927332401E0,1.094925563E1
2.945935900E0,8.379705995E-2,-1.097771454E1,1.472434044E0,1.107633967E1
2.947965108E0,-2.705447972E-1,-1.108305931E1,1.206677675E0,1.115183703E1
2.949993708E0,-9.504981041E-1,-1.126262379E1,6.536170840E-1,1.132154391E1
2.952021708E0,-1.675941229E0,-1.140388203E1,9.576806426E-2,1.152677213E1
2.954049152E0,-2.056619167E0,-1.144937134E1,-1.699883193E-1,1.163385931E1
2.956076116E0,-2.913743496E0,-1.152359200E1,-6.607996821E-1,1.190460961E1
2.958102633E0,-3.787626982E0,-1.157147598E1,-1.110909581E0,1.222617253E1
2.960128699E0,-4.247313976E0,-1.161457157E1,-1.312022567E0,1.243621132E1
2.962154765E0,-5.181351662E0,-1.174146461E1,-1.697489023E0,1.294565044E1
2.964180798E0,-6.237194538E0,-1.194975948E1,-2.121262789E0,1.364547922E1
2.966206864E0,-6.830956936E0,-1.208862400E1,-2.367865562E0,1.408558093E1
2.968232897E0,-8.255506516E0,-1.241902351E1,-2.923320293E0,1.519642505E1
2.970258930E0,-9.871592522E0,-1.284040260E1,-3.648763418E0,1.660234177E1
2.972284896E0,-1.188751030E1,-1.316362000E1,-4.412513733E0,1.827741967E1
2.974310762E0,-1.322108078E1,-1.307024670E1,-4.572925091E0,1.914523360E1
2.976364895E0,-1.570895576E1,-1.334318542E1,-5.916371822E0,2.144330534E1
2.978419028E0,-1.639848518E1,-1.361612415E1,-6.457461357E0,2.227123617E1
2.980473228E0,-1.777515221E1,-1.408538818E1,-7.664138794E0,2.393936548E1
2.982527428E0,-1.941996765E1,-1.444930649E1,-8.952219009E0,2.580813489E1
2.984581594E0,-2.031061172E1,-1.459774685E1,-9.639355659E0,2.680545354E1
2.986635727E0,-2.215893555E1,-1.482070732E1,-1.104475212E1,2.885581985E1
2.988689827E0,-2.404556656E1,-1.483986092E1,-1.242620564E1,3.086780409E1
2.990743960E0,-2.494608498E1,-1.477282333E1,-1.304391003E1,3.179130469E1
2.992797993E0,-2.658850861E1,-1.445409489E1,-1.402792740E1,3.335644459E1
2.994851893E0,-2.857090759E1,-1.389863968E1,-1.467196751E1,3.499622231E1
2.996906526E0,-2.906650734E1,-1.376456451E1,-1.469112110E1,3.535751864E1
2.998961192E0,-2.958604813E1,-1.363288403E1,-1.461211205E1,3.570299132E1
3.001015792E0,-3.075920677E1,-1.328093624E1,-1.435832691E1,3.645097558E1
3.003058558E0,-3.177195358E1,-1.295053673E1,-1.404708099E1,3.707416783E1
3.005101224E0,-3.215981674E1,-1.284997940E1,-1.386751556E1,3.730527806E1
3.007143890E0,-3.260034943E1,-1.283322048E1,-1.341501141E1,3.751582148E1
3.009186590E0,-3.259795380E1,-1.301278591E1,-1.272548103E1,3.733493078E1
3.011229290E0,-3.246627426E1,-1.311813068E1,-1.227776527E1,3.710643930E1
3.013271990E0,-3.206883621E1,-1.332403183E1,-1.119079781E1,3.648525779E1
3.015314656E0,-3.159239006E1,-1.352993298E1,-9.864410400E0,3.575534629E1
3.017357222E0,-3.130508423E1,-1.364485455E1,-9.141361237E0,3.535187179E1
3.019399722E0,-3.061316109E1,-1.398483181E1,-7.630620003E0,3.451039719E1
3.021442188E0,-2.976800728E1,-1.443494129E1,-6.160580158E0,3.365196183E1
3.023484654E0,-2.868582916E1,-1.482788944E1,-4.872200489E0,3.265702739E1
3.025527087E0,-2.809924889E1,-1.500506020E1,-4.302380562E0,3.214389674E1
3.027569520E0,-2.698594475E1,-1.531151867E1,-3.263296843E0,3.119828399E1
3.029611920E0,-2.595165062E1,-1.557727528E1,-2.291250944E0,3.035439846E1
3.031654320E0,-2.546562767E1,-1.566346645E1,-1.836352706E0,2.995354011E1
3.033696753E0,-2.449567604E1,-1.579754162E1,-9.481038451E-1,2.916332229E1
3.035739186E0,-2.351884270E1,-1.596992397E1,-9.097966552E-2,2.842855450E1
3.037753319E0,-2.302803040E1,-1.609442329E1,3.256114423E-1,2.809673767E1
3.039767419E0,-2.209189796E1,-1.638890839E1,1.130063176E0,2.753044345E1
3.041781519E0,-2.119407272E1,-1.675761604E1,1.874659896E0,2.708358846E1
3.043795652E0,-2.076072121E1,-1.696591187E1,2.221819162E0,2.690327472E1
3.045809818E0,-1.988683701E1,-1.740165710E1,2.896984100E0,2.658376333E1
3.047824051E0,-1.903689575E1,-1.790922737E1,3.541024208E0,2.637579719E1
3.049838317E0,-1.811752319E1,-1.851256561E1,4.122815132E0,2.622894083E1
3.051852583E0,-1.760037613E1,-1.883099556E1,4.390965939E0,2.614689686E1
3.053866949E0,-1.647509956E1,-1.954925537E1,4.888959885E0,2.602891123E1
3.055881415E0,-1.524208641E1,-2.035131264E1,5.260360241E0,2.596475523E1
3.057895115E0,-1.457380486E1,-2.076551056E1,5.394435883E0,2.593650237E1
3.059908815E0,-1.312052441E1,-2.162742233E1,5.588366032E0,2.590604934E1
3.061922581E0,-1.149965000E1,-2.254919052E1,5.667374611E0,2.593891051E1
3.063936347E0,-1.059703636E1,-2.302803040E1,5.679345608E0,2.597772758E1
3.065950147E0,-8.559570312E0,-2.403120041E1,5.648221016E0,2.612790152E1
3.067964013E0,-6.170156956E0,-2.512086296E1,5.523722649E0,2.645071085E1
3.069977879E0,-4.829104900E0,-2.569786453E1,5.418377876E0,2.670317049E1
3.071991745E0,-1.812410712E0,-2.686623573E1,5.174169064E0,2.741991029E1
3.074005678E0,1.563413739E0,-2.804657745E1,4.927566528E0,2.851904068E1
3.076019678E0,5.234024048E0,-2.904495811E1,4.596867085E0,2.986864220E1
3.078033778E0,7.166144848E0,-2.945676041E1,4.355052948E0,3.062712608E1
3.080047944E0,1.118600941E1,-3.003855324E1,3.639186621E0,3.225965230E1
3.082062177E0,1.550784302E1,-3.023008919E1,2.592920542E0,3.407454657E1
3.084076410E0,1.778712273E1,-3.019896317E1,2.023100376E0,3.510629639E1
3.086090676E0,2.264735222E1,-2.981349754E1,8.786720037E-1,3.745022380E1
3.088104942E0,2.782630920E1,-2.891567230E1,-2.154781520E-1,4.013061200E1
3.090119275E0,3.041204834E1,-2.825726700E1,-7.374141216E-1,4.151999039E1
3.092133575E0,3.603632736E1,-2.628683853E1,-1.750161409E0,4.463942019E1
3.094147875E0,4.187099457E1,-2.320280647E1,-2.659958124E0,4.794398598E1
3.096162175E0,4.766047668E1,-2.126589775E1,-2.985569477E0,5.227497556E1
3.098176408E0,5.059097672E1,-1.654213715E1,-3.361459255E0,5.333281011E1
3.100190574E0,5.626314163E1,-1.091546440E1,-3.404554844E0,5.741323422E1
3.102205474E0,6.146334839E1,-4.762067318E0,-3.129221678E0,6.172691883E1
3.104219540E0,6.382193375E1,-1.584961534E0,-2.801215887E0,6.390303702E1
3.106233606E0,6.780348969E1,4.644751072E0,-1.774103403E0,6.798554529E1
3.108247639E0,7.063104248E1,1.027860737E1,-3.280056417E-1,7.137577684E1
3.110261639E0,7.165336609E1,1.268956852E1,4.788403511E-1,7.276990662E1
3.112275672E0,7.272357941E1,1.660438728E1,2.446874142E0,7.463519191E1
3.114289672E0,7.226149750E1,1.913505936E1,5.150227070E0,7.492929571E1
3.116303605E0,7.050894165E1,2.017174721E1,8.411129951E0,7.381840790E1
3.118318705E0,6.934056854E1,2.014062309E1,1.012537861E1,7.291284137E1
3.120333771E0,6.656090546E1,1.917815399E1,1.335276222E1,7.054397199E1
3.122348771E0,6.499748993E1,1.830905914E1,1.480873585E1,6.913171487E1
3.124363771E0,6.152559662E1,1.611118126E1,1.740644455E1,6.593901359E1
3.126378804E0,5.754164505E1,1.367119122E1,1.952531433E1,6.228306579E1
3.128393737E0,5.314319611E1,1.128417206E1,2.154123116E1,5.844276235E1
3.130408637E0,5.079209137E1,1.018523312E1,2.251088333E1,5.648287694E1
3.132423470E0,4.601087189E1,8.207622528E0,2.420118904E1,5.263138750E1
3.134438270E0,4.122456360E1,6.567594528E0,2.548478127E1,4.890881329E1
3.136453070E0,3.891176224E1,5.880458832E0,2.595643806E1,4.714278008E1
3.138496203E0,3.273202896E1,4.347870350E0,2.682553291E1,4.254290672E1
3.140539369E0,3.098186874E1,3.998316765E0,2.696439743E1,4.126671124E1
3.142582502E0,2.802742386E1,3.476380825E0,2.706495476E1,3.911692074E1
3.144625635E0,2.580799866E1,3.191470861E0,2.697397423E1,3.746776704E1
3.146668768E0,2.427062035E1,3.122039080E0,2.665793991E1,3.618640491E1
3.148711868E0,2.372953224E1,3.098097086E0,2.642330742E1,3.564940506E1
3.150754934E0,2.301605988E1,3.203441858E0,2.580799866E1,3.472828597E1
3.152798000E0,2.271678352E1,3.385401249E0,2.503466988E1,3.397422392E1
3.154841033E0,2.267608261E1,3.500322819E0,2.458456039E1,3.362822612E1
3.156884066E0,2.278382111E1,3.790021181E0,2.353320694E1,3.297390777E1
3.158927099E0,2.305915451E1,4.115632534E0,2.225709724E1,3.231162973E1
3.160970132E0,2.324111366E1,4.283226967E0,2.155559731E1,3.198654675E1
3.163012365E0,2.365531158E1,4.613626480E0,2.002809525E1,3.133662258E1
3.165055331E0,2.412218094E1,4.953902721E0,1.845031738E1,3.077068373E1
3.167098264E0,2.432808113E1,5.111919880E0,1.765065384E1,3.048824097E1
3.169141130E0,2.469708824E1,5.399224281E0,1.601780701E1,2.992771177E1
3.171183996E0,2.497002792E1,5.653009415E0,1.433677864E1,2.934283612E1
3.173226796E0,2.504903603E1,5.777507782E0,1.351556778E1,2.904314677E1
3.175269496E0,2.505142975E1,5.988197803E0,1.189229870E1,2.837004430E1
3.177312196E0,2.468032837E1,6.165368557E0,9.608230591E0,2.719280186E1
3.179353662E0,2.445258141E1,6.160580158E0,8.901941299E0,2.674184070E1
3.181395062E0,2.419161224E1,6.143820763E0,8.224382401E0,2.627967090E1
3.183436395E0,2.355954361E1,6.071994781E0,6.931513309E0,2.529757088E1
3.185493161E0,2.278142738E1,5.937919617E0,5.799055576E0,2.424626504E1
3.187549894E0,2.187641907E1,5.732017994E0,4.841075897E0,2.312725140E1
3.189606627E0,2.135927200E1,5.597942829E0,4.424484730E0,2.251958103E1
3.191663360E0,2.026272774E1,5.284302235E0,3.744531393E0,2.127259977E1
3.193720160E0,1.910632896E1,4.939537525E0,3.196259260E0,1.999167103E1
3.195776893E0,1.850538254E1,4.750096321E0,2.975992680E0,1.933569576E1
3.197833593E0,1.727715874E1,4.355052948E0,2.612074137E0,1.800804352E1
3.199861959E0,1.606808662E1,3.885789394E0,2.346317768E0,1.669694505E1
3.201890292E0,1.485661983E1,3.414131641E0,2.128445387E0,1.539174219E1
3.203918658E0,1.426974106E1,3.155557871E0,2.008735180E0,1.475188369E1
3.205947024E0,1.311334229E1,2.650381327E0,1.742978811E0,1.349156189E1
3.207975357E0,1.197609615E1,2.154781580E0,1.460463047E0,1.225572989E1
3.210003690E0,1.141106415E1,1.929726601E0,1.304839969E0,1.164640876E1
3.212031990E0,1.029776096E1,1.515529633E0,9.720458984E-1,1.045397456E1
3.214060290E0,9.229947090E0,1.165976286E0,6.129156351E-1,9.323469824E0
3.216088656E0,8.746317863E0,1.031900883E0,4.333505034E-1,8.817635072E0
3.218117022E0,7.819762230E0,8.307880163E-1,7.422025502E-2,7.864120975E0
3.221052022E0,6.651391506E0,5.841852427E-1,-4.094084799E-1,6.689536357E0
3.223229096E0,6.323386192E0,5.099649429E-1,-5.386953950E-1,6.366747200E0
3.225244096E0,5.720046997E0,3.639186621E-1,-7.661445141E-1,5.782590411E0
3.227258096E0,5.181351662E0,2.011129409E-1,-9.193734527E-1,5.266127515E0
3.229271596E0,4.939537525E0,1.149216816E-1,-9.768342972E-1,5.036511015E0
3.231285596E0,4.515464306E0,-4.309562966E-2,-1.019929886E0,4.629420277E0
3.233299596E0,4.153939724E0,-1.795651317E-1,-1.024718285E0,4.282231478E0
3.235313596E0,4.007893562E0,-2.178723514E-1,-1.003170490E0,4.137273281E0
3.237327429E0,3.754108191E0,-2.537853718E-1,-9.121908545E-1,3.871669856E0
3.239341286E0,3.550601006E0,-2.226607651E-1,-7.852981687E-1,3.643218156E0
3.241355036E0,3.464409828E0,-1.939303428E-1,-7.134721279E-1,3.542426698E0
3.243368813E0,3.363853455E0,-1.460463107E-1,-5.650315881E-1,3.414103145E0
3.245382613E0,3.323152065E0,-6.703764945E-2,-4.141969085E-1,3.349536203E0
3.247396431E0,3.311181068E0,-2.394201607E-2,-2.346317619E-1,3.319570055E0
3.249410181E0,3.311181068E0,9.576806426E-2,-1.436520964E-1,3.315679043E0
3.251423950E0,3.323152065E0,1.939303428E-1,5.267243832E-2,3.329222584E0
3.253437735E0,3.347094059E0,2.873041928E-1,2.466027737E-1,3.368441074E0
3.255451535E0,3.373430252E0,3.088520169E-1,3.423708379E-1,3.404796473E0
3.257465347E0,3.411737442E0,3.208230138E-1,5.363011956E-1,3.468500937E0
3.259479170E0,3.459621429E0,3.327940404E-1,7.134721279E-1,3.548066345E0
3.261492836E0,3.495534420E0,3.375824392E-1,7.924807668E-1,3.600103964E0
3.263506467E0,3.586514235E0,3.591302633E-1,9.528923035E-1,3.728278777E0
3.265520017E0,3.696647406E0,4.141969085E-1,1.036689281E0,3.861539303E0
3.267533588E0,3.754108191E0,4.525041282E-1,1.055842996E0,3.925925716E0
3.269547269E0,3.876212597E0,5.698199868E-1,1.079784989E0,4.063945686E0
3.271560964E0,3.993528366E0,6.943184733E-1,1.072602391E0,4.192949182E0
3.273574672E0,4.118026733E0,7.685387731E-1,1.072602391E0,4.324265477E0
3.275588392E0,4.192247391E0,9.121908545E-1,1.074996591E0,4.422968235E0
3.277602122E0,4.333505154E0,1.058237195E0,1.072602391E0,4.587985262E0
3.279615862E0,4.446032524E0,1.180341482E0,1.041477680E0,4.716469758E0
3.281629612E0,4.486733913E0,1.235408068E0,1.031900883E0,4.766742466E0
3.283643370E0,4.584896088E0,1.292868972E0,1.010353088E0,4.869660735E0
3.285657136E0,4.659116745E0,1.345541358E0,1.007958889E0,4.953163788E0
3.287670869E0,4.702212334E0,1.367089152E0,1.022324085E0,5.002487393E0
3.289684635E0,4.809951305E0,1.412579060E0,1.079784989E0,5.128054873E0
3.291698335E0,4.910807133E0,1.455674648E0,1.134851575E0,5.246227547E0
3.293712001E0,4.961085320E0,1.470039845E0,1.168370485E0,5.304571074E0
3.295725634E0,5.078401089E0,1.503558636E0,1.254561663E0,5.442864242E0
3.297739300E0,5.217264652E0,1.537077546E0,1.333570361E0,5.600077476E0
3.299753033E0,5.372888088E0,1.608903527E0,1.450886250E0,5.793234664E0
3.301768566E0,5.480627060E0,1.659181833E0,1.515529633E0,5.923426997E0
3.303782232E0,5.708076000E0,1.738190413E0,1.685518026E0,6.200355518E0
3.305795865E0,5.952284813E0,1.843535304E0,1.896207690E0,6.513364761E0
3.307809465E0,6.071994781E0,1.910573006E0,2.008735180E0,6.674910251E0
3.309823031E0,6.344933987E0,2.032677174E0,2.250549555E0,7.032420429E0
3.311836631E0,6.603507519E0,2.149993181E0,2.480392933E0,7.374356333E0
3.313850197E0,6.718429089E0,2.200271368E0,2.588132143E0,7.528406970E0
3.315863730E0,6.960243702E0,2.310404539E0,2.827552319E0,7.859899086E0
3.317877230E0,7.204452038E0,2.382230759E0,3.081337690E0,8.189859249E0
3.319890696E0,7.316979885E0,2.420537949E0,3.217807055E0,8.351735199E0
3.321904296E0,7.542034626E0,2.492363930E0,3.488351822E0,8.675411385E0
3.323917962E0,7.764695168E0,2.552218914E0,3.754108191E0,8.994311577E0
3.325931662E0,7.992144585E0,2.573766708E0,3.883395195E0,9.250913921E0
3.327945395E0,8.107066154E0,2.580949545E0,4.139574528E0,9.461601316E0
3.329959028E0,8.317755699E0,2.597708941E0,4.371812344E0,9.749148413E0
3.331972628E0,8.514080048E0,2.578555346E0,4.572925091E0,1.000250722E1
3.333986161E0,8.612242699E0,2.559401512E0,4.683058739E0,1.013174711E1
3.335999694E0,8.813355446E0,2.537853718E0,4.910807133E0,1.040345916E1
3.338013260E0,8.985737801E0,2.501940727E0,5.104737282E0,1.063303973E1
3.340026826E0,9.071929932E0,2.485181332E0,5.198111057E0,1.074692503E1
3.342040359E0,9.239523888E0,2.456450939E0,5.356128693E0,1.095860700E1
3.344053859E0,9.411906242E0,2.449268341E0,5.497386456E0,1.117157788E1
3.346068225E0,9.498097420E0,2.461239338E0,5.545270443E0,1.127038500E1
3.348081725E0,9.677662849E0,2.511517525E0,5.617096424E0,1.146807093E1
3.350095225E0,9.881169319E0,2.573766708E0,5.662586212E0,1.167590103E1
3.352108758E0,9.969755173E0,2.616862535E0,5.669768810E0,1.176393923E1
3.354122358E0,1.015410900E1,2.700659513E0,5.662586212E0,1.193584409E1
3.356135991E0,1.034564495E1,2.832340717E0,5.605125427E0,1.210255983E1
3.358149624E0,1.053239250E1,2.990357876E0,5.550058842E0,1.227504318E1
3.360163224E0,1.070477486E1,3.124433279E0,5.504569054E0,1.243601900E1
3.362174957E0,1.078378391E1,3.179499865E0,5.478232861E0,1.250640836E1
3.364188557E0,1.093940639E1,3.294421434E0,5.430348873E0,1.264960528E1
3.366202223E0,1.100165653E1,3.359065056E0,5.420772076E0,1.271630978E1
3.368215923E0,1.112376022E1,3.440467834E0,5.423166275E0,1.284467177E1
3.370229723E0,1.124825859E1,3.509899616E0,5.447108269E0,1.298128288E1
3.372243489E0,1.130093098E1,3.538630009E0,5.454290867E0,1.303772343E1
3.374257289E0,1.137994003E1,3.562572241E0,5.475838661E0,1.312172874E1
3.376271122E0,1.149486160E1,3.620033026E0,5.518934250E0,1.325500349E1
3.378284988E0,1.155232239E1,3.639186621E0,5.545270443E0,1.332103059E1
3.380298854E0,1.166006184E1,3.694253206E0,5.593154430E0,1.344945818E1
3.382341020E0,1.185159779E1,3.809175014E0,5.669768810E0,1.367905197E1
3.384383153E0,1.191863537E1,3.849876404E0,5.686528206E0,1.375543603E1
3.386425286E0,1.204074001E1,3.948038578E0,5.732017994E0,1.390764031E1
3.388467352E0,1.214369011E1,4.058171749E0,5.789478779E0,1.405190492E1
3.390509418E0,1.220354557E1,4.106055737E0,5.803843975E0,1.412341400E1
3.392551518E0,1.229452515E1,4.187458992E0,5.834969044E0,1.423857525E1
3.394593651E0,1.237353325E1,4.283226967E0,5.834969044E0,1.433517429E1
3.396635751E0,1.240705204E1,4.323928356E0,5.832574844E0,1.437533395E1
3.398677784E0,1.246211910E1,4.388571739E0,5.808632374E0,1.443274695E1
3.400719817E0,1.251000309E1,4.441244125E0,5.765536785E0,1.447294860E1
3.402761850E0,1.252676296E1,4.467580318E0,5.743988991E0,1.448697600E1
3.404803916E0,1.253155136E1,4.510675907E0,5.684134007E0,1.448086172E1
3.406845082E0,1.251239777E1,4.539406300E0,5.657797813E0,1.446295210E1
3.408887115E0,1.246211910E1,4.584896088E0,5.645826817E0,1.442917340E1
3.410929115E0,1.243578243E1,4.592078686E0,5.626673222E0,1.440122644E1
3.412971115E0,1.236395645E1,4.599261284E0,5.605125427E0,1.433311043E1
3.415013081E0,1.226100636E1,4.577713490E0,5.552453041E0,1.421680247E1
