"Time (s)","Acceleration x (m/s^2)","Acceleration y (m/s^2)","Acceleration z (m/s^2)"
9.004315000E-3,-4.448426723E0,4.937143326E0,7.400776863E0
1.102031500E-2,-4.429273129E0,4.922778130E0,7.434295654E0
1.303331500E-2,-4.410119534E0,4.901230335E0,7.503727436E0
1.504631500E-2,-4.393360138E0,4.862623692E0,7.558794022E0
1.705931500E-2,-4.390965939E0,4.841075897E0,7.587524414E0
1.907281500E-2,-4.364629745E0,4.783615112E0,7.685686588E0
2.109801500E-2,-4.359841347E0,4.762067318E0,7.712022781E0
2.311118100E-2,-4.350264549E0,4.742913723E0,7.712022781E0
2.512432300E-2,-4.357447147E0,4.714183331E0,7.764695168E0
2.713744800E-2,-4.335899353E0,4.687847137E0,7.805397034E0
2.915067000E-2,-4.319139957E0,4.678270340E0,7.810185432E0
3.116397000E-2,-4.292803764E0,4.683058739E0,7.810185432E0
3.317724200E-2,-4.261679173E0,4.666299343E0,7.807791233E0
3.519049200E-2,-4.232948780E0,4.663905144E0,7.814973831E0
3.720379900E-2,-4.216189384E0,4.661510944E0,7.817368031E0
3.921708400E-2,-4.201824188E0,4.632780075E0,7.814973831E0
4.123028400E-2,-4.213795185E0,4.589684486E0,7.800608635E0
4.324340900E-2,-4.213795185E0,4.572925091E0,7.800608635E0
4.525646700E-2,-4.201824188E0,4.570530891E0,7.791031837E0
4.726946700E-2,-4.175487995E0,4.575319290E0,7.803002834E0
4.928241400E-2,-4.156333923E0,4.577713490E0,7.791031837E0
5.129526400E-2,-4.110844135E0,4.568136692E0,7.791031837E0
5.330807300E-2,-4.041412354E0,4.601655483E0,7.846098423E0
5.532084500E-2,-4.012681961E0,4.616020679E0,7.874828815E0
5.733358400E-2,-3.955221176E0,4.647145271E0,7.961019993E0
5.934633400E-2,-3.892971992E0,4.668693542E0,8.044816971E0
6.135893400E-2,-3.869029999E0,4.673481941E0,8.083124161E0
6.337151000E-2,-3.830722809E0,4.678270340E0,8.162133217E0
6.538406500E-2,-3.842693806E0,4.680664539E0,8.205228806E0
6.739663600E-2,-3.837905407E0,4.683058739E0,8.214805603E0
6.940925600E-2,-3.842693806E0,4.687847137E0,8.205228806E0
7.142188900E-2,-3.847482204E0,4.683058739E0,8.166921616E0
7.343452200E-2,-3.859453201E0,4.687847137E0,8.114249229E0
7.544715500E-2,-3.859453201E0,4.695029736E0,8.075942039E0
7.745975500E-2,-3.852270603E0,4.707000732E0,8.001721382E0
7.947228800E-2,-3.845088005E0,4.716577530E0,7.922712803E0
8.148282100E-2,-3.835511208E0,4.730942726E0,7.886799812E0
8.349535400E-2,-3.842693806E0,4.771644115E0,7.824550629E0
8.550792000E-2,-3.840299606E0,4.797980309E0,7.793426037E0
8.752045300E-2,-3.823540211E0,4.812345505E0,7.779060364E0
8.953295300E-2,-3.818751812E0,4.829104900E0,7.745541573E0
9.154541900E-2,-3.823540211E0,4.850652695E0,7.735964775E0
9.355785200E-2,-3.866635799E0,4.860229492E0,7.726387978E0
9.557028500E-2,-3.871424198E0,4.872200489E0,7.728782177E0
9.758268500E-2,-3.902548790E0,4.855441093E0,7.700051785E0
9.959505100E-2,-3.931279182E0,4.869806290E0,7.678503990E0
1.016359840E-1,-3.948038578E0,4.865017891E0,7.680898190E0
1.036769840E-1,-3.971980572E0,4.865017891E0,7.654561996E0
1.057180170E-1,-3.988739967E0,4.867412090E0,7.656956196E0
1.077590830E-1,-4.007893562E0,4.862623692E0,7.661744595E0
1.098001830E-1,-4.015076160E0,4.865017891E0,7.644985199E0
1.118413490E-1,-4.015076160E0,4.862623692E0,7.637802601E0
1.138825820E-1,-4.036623955E0,4.855441093E0,7.621043205E0
1.159238480E-1,-4.058171749E0,4.831499100E0,7.599495411E0
1.179651140E-1,-4.072536945E0,4.814739704E0,7.563582420E0
1.200064140E-1,-4.079719543E0,4.817133904E0,7.558794022E0
1.220478470E-1,-4.079719543E0,4.821922302E0,7.554005623E0
1.240892800E-1,-4.062960148E0,4.841075897E0,7.565976620E0
1.261307460E-1,-4.050989151E0,4.826710701E0,7.561188221E0
1.281722460E-1,-4.010287762E0,4.826710701E0,7.570765018E0
1.302136790E-1,-3.976768970E0,4.848258495E0,7.601889610E0
1.322550790E-1,-3.957615376E0,4.876988888E0,7.621043205E0
1.342964450E-1,-3.885789394E0,4.915595531E0,7.666532993E0
1.363378110E-1,-3.823540211E0,4.944325924E0,7.726387978E0
1.383791770E-1,-3.790021181E0,4.951508522E0,7.762300968E0
1.404205770E-1,-3.811569214E0,5.097554684E0,7.927501202E0
1.424619430E-1,-3.804386616E0,5.145438671E0,7.980173588E0
1.445032430E-1,-3.730166197E0,5.152621269E0,7.982567787E0
1.465444760E-1,-3.725377798E0,5.162198067E0,7.980173588E0
1.485985760E-1,-3.706224203E0,5.162198067E0,7.937077999E0
1.506527090E-1,-3.665522814E0,5.135861874E0,7.901165009E0
1.527068420E-1,-3.655946016E0,5.092766285E0,7.884405613E0
1.547610420E-1,-3.660734415E0,5.085583687E0,7.889194012E0
1.568152750E-1,-3.641580820E0,5.064035892E0,7.896376610E0
1.588695410E-1,-3.632004023E0,5.028122902E0,7.903559208E0
1.609238410E-1,-3.632004023E0,5.013757706E0,7.910741806E0
1.629496070E-1,-3.612850428E0,4.985027313E0,7.915530205E0
1.649753400E-1,-3.605667830E0,4.977844715E0,7.920318604E0
1.670011060E-1,-3.588908434E0,4.970662117E0,7.908347607E0
1.690268720E-1,-3.545812607E0,4.977844715E0,7.898770809E0
1.710526720E-1,-3.514688015E0,4.977844715E0,7.889194012E0
1.730784720E-1,-3.497928619E0,4.968267918E0,7.910741806E0
1.751042720E-1,-3.509899616E0,4.949114323E0,7.922712803E0
1.771300050E-1,-3.536235809E0,4.929960728E0,7.925107002E0
1.791558050E-1,-3.550601006E0,4.927566528E0,7.896376610E0
1.811815380E-1,-3.555389643E0,4.929960728E0,7.874828815E0
1.832357380E-1,-3.593696833E0,4.925172329E0,7.747935772E0
1.852900380E-1,-3.605667830E0,4.920383930E0,7.707234383E0
1.873443710E-1,-3.620033026E0,4.901230335E0,7.628225803E0
1.893986710E-1,-3.670311213E0,4.903624535E0,7.556399822E0
1.914530040E-1,-3.727771997E0,4.891354084E0,7.525275230E0
1.935074040E-1,-3.751713991E0,4.891354084E0,7.474997044E0
1.955618700E-1,-3.821146011E0,4.884171486E0,7.424718857E0
1.976163030E-1,-3.888183594E0,4.913201332E0,7.403171062E0
1.996707690E-1,-3.900154591E0,4.920383930E0,7.381623268E0
2.017252690E-1,-3.960009575E0,4.908412933E0,7.305008888E0
2.037797690E-1,-3.974374771E0,4.908412933E0,7.302614689E0
2.058343690E-1,-3.986345768E0,4.917989731E0,7.295432091E0
2.078890350E-1,-4.034229755E0,4.927566528E0,7.281066418E0
2.099308350E-1,-4.039018154E0,4.925172329E0,7.285854816E0
2.119726680E-1,-4.053383350E0,4.934749126E0,7.295432091E0
2.140145340E-1,-4.077325344E0,4.953902721E0,7.312191486E0
2.160564340E-1,-4.110844135E0,4.999392509E0,7.360075474E0
2.180983000E-1,-4.125209332E0,5.008969307E0,7.374440670E0
2.201401660E-1,-4.110844135E0,5.011363506E0,7.386411667E0
2.221820660E-1,-4.098873138E0,5.061641693E0,7.431901455E0
2.242239320E-1,-4.065354347E0,5.099948883E0,7.474997044E0
2.262657650E-1,-4.060565948E0,5.111919880E0,7.494150639E0
2.283075310E-1,-4.058171749E0,5.121496677E0,7.522881031E0
2.303493310E-1,-3.988739967E0,5.128679276E0,7.520486832E0
2.323910970E-1,-3.950432777E0,5.135861874E0,7.518092632E0
2.344328970E-1,-3.900154591E0,5.145438671E0,7.515698433E0
2.364746970E-1,-3.835511208E0,5.152621269E0,7.503727436E0
2.385165630E-1,-3.778050184E0,5.159803867E0,7.489362240E0
2.405584290E-1,-3.569754839E0,5.178957462E0,7.218817234E0
2.426003620E-1,-3.387795448E0,5.159803867E0,6.986579895E0
2.446138620E-1,-3.375824451E0,5.138256073E0,7.034463882E0
2.466273280E-1,-3.399766445E0,5.076006889E0,7.237970829E0
2.486407610E-1,-3.457227230E0,5.025728703E0,7.465420246E0
2.506541610E-1,-3.481169224E0,5.008969307E0,7.630620003E0
2.526675610E-1,-3.500322819E0,4.980238914E0,7.664138794E0
2.546809270E-1,-3.481169224E0,4.927566528E0,7.628225803E0
2.566942600E-1,-3.445256233E0,4.874594688E0,7.530063629E0
2.587076260E-1,-3.442862034E0,4.841075897E0,7.494150639E0
2.607209920E-1,-3.416525841E0,4.797980309E0,7.427113056E0
2.627342580E-1,-3.368641853E0,4.781220913E0,7.388805866E0
2.647495240E-1,-3.354276657E0,4.771644115E0,7.360075474E0
2.667627240E-1,-3.330334663E0,4.697423935E0,7.324162483E0
2.687759240E-1,-3.354276657E0,4.639962673E0,7.364863873E0
2.707891900E-1,-3.359065056E0,4.606443882E0,7.386411667E0
2.728023900E-1,-3.366247654E0,4.565742493E0,7.455843449E0
2.748154900E-1,-3.368641853E0,4.548983097E0,7.525275230E0
2.768285560E-1,-3.371036053E0,4.537012100E0,7.565976620E0
2.788415890E-1,-3.368641853E0,4.544194698E0,7.678503990E0
2.808545550E-1,-3.363853455E0,4.534617901E0,7.738358974E0
2.828675210E-1,-3.351882458E0,4.513070107E0,7.786243439E0
2.848804870E-1,-3.347094059E0,4.498704910E0,7.810185432E0
2.868934530E-1,-3.349488258E0,4.472368717E0,7.829339027E0
2.889064190E-1,-3.344699860E0,4.455609322E0,7.829339027E0
2.909193520E-1,-3.330334663E0,4.443638325E0,7.831733227E0
2.929322520E-1,-3.299209833E0,4.446032524E0,7.889194012E0
2.949451180E-1,-3.294421434E0,4.481945515E0,7.984961987E0
2.969579510E-1,-3.292027235E0,4.474762917E0,8.023268700E0
2.989708170E-1,-3.270479441E0,4.503493309E0,8.092700958E0
3.009836170E-1,-3.232172251E0,4.563348293E0,8.147768021E0
3.029963830E-1,-3.201047659E0,4.582501888E0,8.188468933E0
3.050090490E-1,-3.172317266E0,4.594472885E0,8.205228806E0
3.070216150E-1,-3.122039080E0,4.632780075E0,8.214805603E0
3.090352150E-1,-3.076549292E0,4.680664539E0,8.195652008E0
3.110477810E-1,-3.047818661E0,4.711789131E0,8.190863609E0
3.130603140E-1,-2.978386879E0,4.766855717E0,8.162133217E0
3.150727800E-1,-2.920926094E0,4.826710701E0,8.133402824E0
3.170851800E-1,-2.887407303E0,4.876988888E0,8.102277756E0
3.190975460E-1,-2.403778553E0,5.265148640E0,7.671321392E0
3.211098790E-1,-1.889025092E0,5.607519627E0,7.163750648E0
3.231222120E-1,-1.869871497E0,5.648221016E0,7.192481041E0
3.251326120E-1,-1.936909199E0,5.621884823E0,7.386411667E0
3.271450780E-1,-2.138022184E0,5.494992256E0,7.905953407E0
3.291574780E-1,-2.243366957E0,5.437531471E0,8.135796547E0
3.311698440E-1,-2.375048161E0,5.394435883E0,8.380004883E0
3.331821770E-1,-2.449268341E0,5.423166275E0,8.312967300E0
3.351945430E-1,-2.482787132E0,5.449502468E0,8.018480301E0
3.372068430E-1,-2.468421936E0,5.547664642E0,7.822156429E0
3.392191760E-1,-2.408566952E0,5.619490623E0,7.477391243E0
3.412315090E-1,-2.418143749E0,5.655403614E0,7.194875240E0
3.432438090E-1,-2.432508945E0,5.655403614E0,7.084742069E0
3.461848090E-1,-2.542642117E0,5.638644218E0,6.869264126E0
3.481753150E-1,-2.607285738E0,5.631461620E0,6.790255070E0
3.501873150E-1,-2.724601507E0,5.574000835E0,6.658574104E0
3.521993150E-1,-2.865859509E0,5.533299446E0,6.546046734E0
3.542118150E-1,-3.035847664E0,5.483021259E0,6.486191750E0
3.562241480E-1,-3.134010077E0,5.451896667E0,6.481403351E0
3.582366480E-1,-3.327940464E0,5.327397823E0,6.507739544E0
3.602490480E-1,-3.505111217E0,5.202899456E0,6.579565525E0
3.622613810E-1,-3.579331636E0,5.166986465E0,6.620266914E0
3.642736660E-1,-3.756502390E0,5.083189487E0,6.723217487E0
3.662859160E-1,-3.895366192E0,4.980238914E0,6.811803341E0
3.682981380E-1,-3.945644379E0,4.932354927E0,6.847716331E0
3.703102380E-1,-4.015076160E0,4.841075897E0,6.902782917E0
3.723224190E-1,-4.053383350E0,4.797980309E0,6.941090107E0
3.743345850E-1,-4.065354347E0,4.788403511E0,6.962637901E0
3.763467380E-1,-4.062960148E0,4.714183331E0,6.991368294E0
3.783588800E-1,-4.050989151E0,4.671087742E0,7.051223278E0
3.803710800E-1,-4.010287762E0,4.639962673E0,7.077559471E0
3.823832670E-1,-3.909731388E0,4.606443882E0,7.132626057E0
3.843954430E-1,-3.775655985E0,4.584896088E0,7.278672218E0
3.864074980E-1,-3.742137194E0,4.580107689E0,7.328950882E0
3.884194450E-1,-3.682282209E0,4.568136692E0,7.400776863E0
3.904312950E-1,-3.545812607E0,4.537012100E0,7.532457829E0
3.924615330E-1,-3.387795448E0,4.541800499E0,7.597101212E0
3.944909870E-1,-3.215412855E0,4.568136692E0,7.635408401E0
3.965197690E-1,-3.114856482E0,4.587290287E0,7.656956196E0
3.985478520E-1,-2.896984100E0,4.613626480E0,7.666532993E0
4.005752920E-1,-2.669534922E0,4.616020679E0,7.597101212E0
4.026021380E-1,-2.554613113E0,4.625597477E0,7.556399822E0
4.046284710E-1,-2.310404539E0,4.630385876E0,7.470208645E0
4.066543280E-1,-2.049436569E0,4.630385876E0,7.391200066E0
4.086797070E-1,-1.932120800E0,4.618414879E0,7.357681274E0
4.107046400E-1,-1.671152830E0,4.606443882E0,7.283460617E0
4.127295730E-1,-1.393425345E0,4.606443882E0,7.204452038E0
4.147545390E-1,-1.134851575E0,4.589684486E0,7.091924667E0
4.167794720E-1,-1.010353088E0,4.594472885E0,7.022492886E0
4.188043720E-1,-7.972691655E-1,4.584896088E0,6.888417721E0
4.208292720E-1,-6.009446383E-1,4.544194698E0,6.768707275E0
4.228542380E-1,-5.147533417E-1,4.548983097E0,6.725611687E0
4.248792380E-1,-3.878606856E-1,4.551377296E0,6.680121899E0
4.269326380E-1,-2.466027737E-1,4.522646904E0,6.620266914E0
4.289861040E-1,-1.508347094E-1,4.498704910E0,6.579565525E0
4.310396370E-1,-6.224924326E-2,4.458003521E0,6.543652534E0
4.330932030E-1,-2.394201700E-3,4.417302132E0,6.543652534E0
4.351468360E-1,7.661445439E-2,4.328716755E0,6.586748123E0
4.372005360E-1,1.484405100E-1,4.256890774E0,6.658574104E0
4.392542690E-1,2.274491638E-1,4.192247391E0,6.725611687E0
4.413080020E-1,2.657563984E-1,4.185064793E0,6.763918877E0
4.433617680E-1,3.423708379E-1,4.141968727E0,6.826168537E0
4.454155340E-1,4.261679053E-1,4.096478939E0,6.936301708E0
4.474694000E-1,4.668693244E-1,4.070142746E0,6.996156693E0
4.495233660E-1,5.722141862E-1,4.055777550E0,7.149385452E0
4.515773990E-1,7.062895298E-1,4.050989151E0,7.309797287E0
4.536186320E-1,7.661445141E-1,4.027047157E0,7.419930458E0
4.556598320E-1,9.145850539E-1,4.005499363E0,7.676109791E0
4.577009980E-1,1.106121182E0,3.986345768E0,7.956231594E0
4.597421640E-1,1.218648672E0,3.981557369E0,8.102277756E0
4.617833300E-1,1.448492050E0,3.964797974E0,8.382399559E0
4.638244960E-1,1.702277422E0,3.931279182E0,8.676886559E0
4.658656290E-1,1.972822189E0,3.943250179E0,8.945036888E0
4.679066290E-1,2.106897593E0,3.964797974E0,9.079112053E0
4.699475620E-1,2.343923569E0,3.995922565E0,9.308955193E0
4.719894620E-1,2.597708941E0,4.060565948E0,9.474155426E0
4.740303950E-1,2.731784105E0,4.101267338E0,9.531616211E0
4.760712280E-1,2.973598480E0,4.163516521E0,9.615413666E0
4.781120610E-1,3.184288263E0,4.194641590E0,9.601048470E0
4.801529270E-1,3.299209833E0,4.209006786E0,9.565135002E0
4.821938270E-1,3.524264812E0,4.283226967E0,9.423876762E0
4.842346600E-1,3.742137194E0,4.378994942E0,9.261071205E0
4.862755260E-1,3.849876404E0,4.434061527E0,9.174880028E0
4.882879920E-1,4.015076160E0,4.551377296E0,9.045593262E0
4.903003920E-1,4.163516521E0,4.630385876E0,8.930671692E0
4.923128250E-1,4.319139957E0,4.663905144E0,8.882787704E0
4.943252250E-1,4.395754337E0,4.690241337E0,8.770259857E0
4.963375250E-1,4.505887508E0,4.699818134E0,8.629002571E0
4.983497250E-1,4.584896088E0,4.690241337E0,8.504503250E0
5.003618910E-1,4.611232281E0,4.687847137E0,8.439860344E0
5.023739910E-1,4.642356873E0,4.668693542E0,8.327332497E0
5.043860910E-1,4.659116745E0,4.675876141E0,8.298602104E0
5.063981910E-1,4.668693542E0,4.685452938E0,8.312967300E0
5.084121570E-1,4.663905144E0,4.699818134E0,8.329727173E0
5.104242230E-1,4.635174274E0,4.728548527E0,8.420706749E0
5.124362890E-1,4.608838081E0,4.742913723E0,8.494926453E0
5.144483220E-1,4.525041103E0,4.747702122E0,8.693645477E0
5.164603220E-1,4.331110954E0,4.795586109E0,8.980949402E0
5.184723220E-1,4.168305397E0,4.848258495E0,9.167697906E0
5.204842880E-1,3.785232782E0,5.092766285E0,9.526827812E0
5.224962880E-1,3.359065056E0,5.423166275E0,9.890746117E0
5.245082540E-1,3.009511471E0,5.763142586E0,1.022354031E1
5.265202870E-1,2.901772499E0,5.925948620E0,1.038395214E1
5.285324530E-1,2.779668093E0,6.237194538E0,1.065210247E1
5.305447190E-1,2.760514498E0,6.467038155E0,1.090828228E1
5.325560520E-1,2.784456491E0,6.555623531E0,1.100405025E1
5.345683180E-1,2.911349297E0,6.720823288E0,1.104954052E1
5.365806180E-1,3.124433279E0,6.807014942E0,1.101123333E1
5.385929510E-1,3.210624456E0,6.866869926E0,1.105432892E1
5.406052840E-1,3.354276657E0,6.936301708E0,1.122671127E1
5.426176500E-1,3.660734415E0,6.905177116E0,1.112136650E1
5.446300500E-1,3.811569214E0,6.878840923E0,1.102081013E1
5.466423830E-1,4.086902142E0,6.768707275E0,1.075744724E1
5.486546830E-1,4.297592163E0,6.694487095E0,1.052760410E1
5.506669830E-1,4.496310711E0,6.687304497E0,1.037198067E1
5.526804160E-1,4.558559895E0,6.663362503E0,1.031930828E1
5.546926820E-1,4.668693542E0,6.672939301E0,1.025705910E1
5.567050480E-1,4.711789131E0,6.620266914E0,1.028818417E1
5.587174810E-1,4.702212334E0,6.591536522E0,1.033127975E1
5.607299470E-1,4.637568474E0,6.546046734E0,1.041986465E1
5.627424470E-1,4.563348293E0,6.467038155E0,1.052521038E1
5.647548800E-1,4.479551315E0,6.404788971E0,1.056351757E1
5.667673130E-1,4.290409565E0,6.186916351E0,1.061379528E1
5.687787460E-1,4.187458992E0,6.067206383E0,1.061140156E1
5.707920790E-1,4.079719543E0,5.933131218E0,1.059464169E1
5.728054120E-1,3.897760391E0,5.669768810E0,1.055872917E1
5.748187120E-1,3.701435804E0,5.415983677E0,1.052999878E1
5.768320780E-1,3.531447411E0,5.145438671E0,1.051323891E1
5.788454110E-1,3.426102638E0,4.999392509E0,1.049408531E1
5.808588110E-1,3.210624456E0,4.750096321E0,1.045577812E1
5.828721770E-1,3.028665066E0,4.558559895E0,1.035761547E1
5.848856100E-1,2.930502892E0,4.460397720E0,1.032409668E1
5.868990100E-1,2.578555346E0,4.302380562E0,1.048211479E1
5.889409100E-1,2.353500366E0,4.118026733E0,1.065689087E1
5.909828100E-1,1.987187386E0,3.916913986E0,1.075505352E1
5.930247100E-1,1.589749932E0,3.821146011E0,1.079096603E1
5.950666760E-1,1.410184860E0,3.787626982E0,1.078617764E1
5.971086420E-1,1.118092179E0,3.701435804E0,1.074547672E1
5.991506080E-1,8.403648138E-1,3.615244627E0,1.069280434E1
6.011925740E-1,6.464344859E-1,3.581725836E0,1.064252567E1
6.032344740E-1,5.650315881E-1,3.552995205E0,1.066167927E1
6.052763740E-1,4.979939461E-1,3.588908434E0,1.067604446E1
6.073183400E-1,4.453215301E-1,3.627215624E0,1.067604446E1
6.093603400E-1,3.806780577E-1,3.643975019E0,1.068801594E1
6.114023400E-1,3.088520169E-1,3.665522814E0,1.071195793E1
6.134431730E-1,2.537853718E-1,3.727771997E0,1.078378391E1
6.154851730E-1,2.537853718E-1,3.763684988E0,1.081969643E1
6.175271390E-1,3.040636182E-1,3.857059002E0,1.089870548E1
6.195691720E-1,4.165911078E-1,4.024652958E0,1.091307068E1
6.216112720E-1,4.596867263E-1,4.110844135E0,1.092982960E1
6.236534380E-1,5.506663918E-1,4.264073372E0,1.098250294E1
6.256957040E-1,6.727706790E-1,4.414907932E0,1.097531986E1
6.277380040E-1,6.488286853E-1,4.419696331E0,1.106869411E1
6.297794040E-1,7.038952708E-1,4.474762917E0,1.106629944E1
6.318207370E-1,8.547300100E-1,4.577713490E0,1.089152241E1
6.338620700E-1,1.058237195E0,4.680664539E0,1.068801594E1
6.359162360E-1,1.233013868E0,4.764461517E0,1.057069969E1
6.379704360E-1,1.333570361E0,4.819528103E0,1.051323891E1
6.400246690E-1,1.525106430E0,4.941931725E0,1.040071106E1
6.420788690E-1,1.671152830E0,5.011363506E0,1.038155746E1
6.441331020E-1,1.733402014E0,5.049670696E0,1.037676907E1
6.461873680E-1,1.850717902E0,5.140650272E0,1.039352894E1
6.482416340E-1,1.960851192E0,5.198111057E0,1.044141293E1
6.502673670E-1,2.011129379E0,5.234024048E0,1.045338345E1
6.522930330E-1,2.080561161E0,5.272331238E0,1.052521038E1
6.543186660E-1,2.073378563E0,5.265148640E0,1.060661316E1
6.563443320E-1,2.011129379E0,5.245995045E0,1.065210247E1
6.583700320E-1,1.970427990E0,5.217264652E0,1.072871685E1
6.603957320E-1,1.927332401E0,5.178957462E0,1.076223564E1
6.624213650E-1,1.833958507E0,5.080795288E0,1.080293751E1
6.644470310E-1,1.738190413E0,4.982633114E0,1.086518669E1
6.664726310E-1,1.489193439E0,4.738125324E0,1.103038692E1
6.684981970E-1,1.221042871E0,4.472368717E0,1.115249062E1
6.714321970E-1,1.034295082E0,4.225766182E0,1.117164421E1
6.735913150E-1,8.092401624E-1,4.010287762E0,1.117643261E1
6.756023150E-1,6.512228847E-1,3.892971992E0,1.118122101E1
6.776133150E-1,5.698199868E-1,3.667917013E0,1.118361568E1
6.796248150E-1,3.974374831E-1,3.426102638E0,1.116206741E1
6.816368150E-1,2.154781520E-1,3.193865061E0,1.106869411E1
6.836488150E-1,1.316810995E-1,3.078943491E0,1.100883865E1
6.856612150E-1,-5.267243832E-2,2.875436306E0,1.085560989E1
6.876737150E-1,-2.705447972E-1,2.671929121E0,1.070956326E1
6.896862860E-1,-5.291185975E-1,2.475604534E0,1.061618996E1
6.916987860E-1,-6.655880809E-1,2.382230759E0,1.056112289E1
6.937113410E-1,-9.337386489E-1,2.252943754E0,1.044380665E1
6.957238410E-1,-1.046266198E0,2.195482969E0,1.037198067E1
6.977362950E-1,-1.225831270E0,2.082955360E0,1.020199299E1
6.997487950E-1,-1.400607944E0,1.975216389E0,9.979331970E0
7.017612560E-1,-1.455674648E0,1.951274395E0,9.854833603E0
7.037736840E-1,-1.549048543E0,1.884236693E0,9.620202065E0
7.057861500E-1,-1.611297727E0,1.805228114E0,9.433453560E0
7.077985870E-1,-1.632845521E0,1.764526606E0,9.249100685E0
7.098109980E-1,-1.647210717E0,1.733402014E0,9.162909508E0
7.118232750E-1,-1.635239720E0,1.685518026E0,9.012074471E0
7.138354850E-1,-1.599326730E0,1.668758631E0,8.897152901E0
7.158476350E-1,-1.575384736E0,1.663970232E0,8.842085838E0
7.178598730E-1,-1.505952835E0,1.680729628E0,8.734347343E0
7.198721450E-1,-1.441309452E0,1.709460020E0,8.705616951E0
7.218844490E-1,-1.410184860E0,1.738190413E0,8.710405350E0
7.238967820E-1,-1.335964561E0,1.805228114E0,8.731952667E0
7.259091820E-1,-1.252167463E0,1.879448295E0,8.770259857E0
7.279216430E-1,-1.199495077E0,1.924938202E0,8.787019730E0
7.299341240E-1,-1.101332784E0,2.037465572E0,8.834903717E0
7.319466240E-1,-1.003170490E0,2.181117773E0,8.880393028E0
7.339591410E-1,-8.762778044E-1,2.236184359E0,8.937853813E0
7.359716410E-1,-8.116343617E-1,2.348711967E0,8.964190483E0
7.379842070E-1,-6.895300746E-1,2.451662540E0,9.004891396E0
7.399968070E-1,-5.506663918E-1,2.568978310E0,9.002497673E0
7.420094400E-1,-4.860229492E-1,2.612074137E0,8.992920876E0
7.440221400E-1,-3.447650373E-1,2.712630510E0,8.973767281E0
7.460348400E-1,-1.939303428E-1,2.827552319E0,8.899546623E0
7.480475730E-1,-9.576806426E-2,2.892195702E0,8.858845711E0
7.500603060E-1,1.532289088E-1,3.081337690E0,8.758289337E0
7.520730060E-1,2.250549644E-1,3.138798475E0,8.741529465E0
7.540857390E-1,3.016694188E-1,3.193865061E0,8.715193748E0
7.560985050E-1,4.213795066E-1,3.289633036E0,8.672098160E0
7.581113380E-1,4.955997467E-1,3.380612850E0,8.648156166E0
7.601241380E-1,5.386953950E-1,3.414131641E0,8.636184692E0
7.621369380E-1,5.650315881E-1,3.423708439E0,8.629002571E0
7.641497710E-1,5.841852427E-1,3.430891037E0,8.640973091E0
7.661626040E-1,5.219359994E-1,3.416525841E0,8.652944565E0
7.681754700E-1,4.836287498E-1,3.397372246E0,8.662521362E0
7.701883700E-1,4.213795066E-1,3.339911461E0,8.703222275E0
7.722013360E-1,3.232172430E-1,3.272873640E0,8.741529465E0
7.742143360E-1,2.705447972E-1,3.236960649E0,8.770259857E0
7.762274020E-1,1.292868853E-1,3.105279684E0,8.815750122E0
7.782404350E-1,-1.675941236E-2,2.990357876E0,8.889969826E0
7.802534680E-1,-1.125274822E-1,2.935291290E0,8.933065414E0
7.822664680E-1,-2.849099934E-1,2.801215887E0,9.036016464E0
7.842794680E-1,-4.189853072E-1,2.652775526E0,9.177274704E0
7.862924680E-1,-4.932055473E-1,2.573766708E0,9.270648003E0
7.883054680E-1,-6.153098345E-1,2.415749550E0,9.457395554E0
7.903184680E-1,-6.967126727E-1,2.276885748E0,9.615413666E0
7.923313680E-1,-7.972691655E-1,2.138022184E0,9.730335236E0
7.943442680E-1,-8.571242094E-1,2.056619167E0,9.768642426E0
7.963583010E-1,-9.457096457E-1,1.920149803E0,9.828496933E0
7.983711340E-1,-1.048660398E0,1.814804912E0,9.852438927E0
8.003839340E-1,-1.077390790E0,1.769315004E0,9.850045204E0
8.023966670E-1,-1.110909581E0,1.661576033E0,9.842862129E0
8.044093670E-1,-1.161187768E0,1.575384736E0,9.799766541E0
8.064220330E-1,-1.182735682E0,1.561019540E0,9.785401344E0
8.084346660E-1,-1.206677675E0,1.513135433E0,9.735123634E0
8.104472660E-1,-1.216254473E0,1.482010841E0,9.689633369E0
8.124598990E-1,-1.213860273E0,1.479616642E0,9.672874451E0
8.144724650E-1,-1.204283476E0,1.470039845E0,9.660902977E0
8.164849980E-1,-1.201889277E0,1.493981838E0,9.644144058E0
8.184974980E-1,-1.170764685E0,1.534683347E0,9.615413666E0
8.205099980E-1,-1.168370485E0,1.558625340E0,9.584288597E0
8.225225310E-1,-1.156399369E0,1.589749932E0,9.517251015E0
8.245350310E-1,-1.098938584E0,1.637633920E0,9.409511566E0
8.265474970E-1,-1.082179189E0,1.673547029E0,9.352050781E0
8.285599300E-1,-1.051054597E0,1.726219416E0,9.292196274E0
8.305723300E-1,-9.744400978E-1,1.793257117E0,9.232340813E0
8.335103300E-1,-8.954314590E-1,1.872265697E0,9.186851501E0
8.355243150E-1,-8.092401624E-1,1.968033791E0,9.148544312E0
8.375373150E-1,-7.110779285E-1,2.013523579E0,9.112630844E0
8.395513150E-1,-6.560112834E-1,2.106897593E0,9.103054047E0
8.415653150E-1,-5.602431893E-1,2.207453966E0,9.081506729E0
8.435789810E-1,-4.716577232E-1,2.331952572E0,9.036016464E0
8.455927310E-1,-4.141969085E-1,2.396595955E0,9.026439667E0
8.476065310E-1,-3.112462163E-1,2.545036316E0,9.040804863E0
8.496201970E-1,-2.154781520E-1,2.681505919E0,9.110237122E0
8.516339110E-1,-1.628057212E-1,2.753331900E0,9.165303230E0
8.536475360E-1,-5.506663769E-2,2.846705914E0,9.323320389E0
8.556610910E-1,9.576806799E-3,2.954444885E0,9.498097420E0
8.576745910E-1,3.830722719E-2,3.009511471E0,9.581894875E0
8.596880450E-1,6.943184882E-2,3.098097086E0,9.754277229E0
8.617013780E-1,7.182604820E-2,3.131615877E0,9.921871185E0
8.637146850E-1,5.746084079E-2,3.141192675E0,1.006552315E1
8.657280420E-1,3.591302410E-2,3.148375273E0,1.013256073E1
8.677414420E-1,-9.576806799E-3,3.138798475E0,1.024748230E1
8.697547540E-1,-7.661445439E-2,3.095702887E0,1.035761547E1
8.717681060E-1,-1.556231081E-1,3.076549292E0,1.044620132E1
8.737813280E-1,-1.939303428E-1,3.040636063E0,1.049887371E1
8.757944850E-1,-3.112462163E-1,2.975992680E0,1.061858368E1
8.778075350E-1,-3.639186621E-1,2.925714493E0,1.067365074E1
8.798437250E-1,-4.692635238E-1,2.813186884E0,1.076702404E1
8.818788150E-1,-5.889736414E-1,2.667140722E0,1.085800362E1
8.839128580E-1,-7.086837292E-1,2.528276920E0,1.091785908E1
8.859459830E-1,-8.283938169E-1,2.458845139E0,1.095855999E1
8.879783030E-1,-8.810662031E-1,2.358288765E0,1.098250294E1
8.900098790E-1,-9.888052940E-1,2.286462545E0,1.102559853E1
8.920406560E-1,-1.110909581E0,2.207453966E0,1.107348251E1
8.940707980E-1,-1.168370485E0,2.157175779E0,1.109742451E1
8.961003150E-1,-1.280897856E0,2.051830769E0,1.111418343E1
8.981292480E-1,-1.376665950E0,1.975216389E0,1.108305931E1
9.001581140E-1,-1.414973259E0,1.960851192E0,1.106390572E1
9.021869140E-1,-1.474828243E0,1.932120800E0,1.096813679E1
9.042157140E-1,-1.508347034E0,1.900996208E0,1.085082150E1
9.062444470E-1,-1.529894829E0,1.891419291E0,1.080054283E1
9.082731130E-1,-1.563413739E0,1.886630893E0,1.075026512E1
9.103017790E-1,-1.563413739E0,1.917755604E0,1.071435165E1
9.123303790E-1,-1.587355733E0,1.948880196E0,1.064492035E1
9.143875120E-1,-1.606509328E0,2.030282974E0,1.057788277E1
9.164446780E-1,-1.594538331E0,2.094926596E0,1.053478718E1
9.185018440E-1,-1.584961534E0,2.118868589E0,1.050845051E1
9.205590440E-1,-1.580173135E0,2.183511972E0,1.043901825E1
9.226162440E-1,-1.558625340E0,2.248155355E0,1.032409668E1
9.246734770E-1,-1.527500629E0,2.286462545E0,1.024508858E1
9.267306430E-1,-1.414973259E0,2.367865562E0,1.004876423E1
9.287877760E-1,-8.954314590E-1,2.413355350E0,9.608230591E0
9.308449090E-1,-8.403648138E-1,2.444479942E0,9.471760750E0
9.329020420E-1,-8.643068075E-1,2.676717520E0,9.282619476E0
9.349592420E-1,-8.810662031E-1,2.777273893E0,9.285013199E0
9.370165080E-1,-9.552865028E-1,2.882618904E0,9.337685585E0
9.390738080E-1,-1.027112484E0,3.074155092E0,9.512462616E0
9.411149080E-1,-1.168370485E0,3.253720045E0,9.658509254E0
9.431560080E-1,-1.173158884E0,3.438073635E0,9.720758438E0
9.451971740E-1,-1.189918280E0,3.526659012E0,9.737517357E0
9.472384070E-1,-1.240196466E0,3.639186621E0,9.742305756E0
9.492796400E-1,-1.331176162E0,3.615244627E0,9.658509254E0
9.513208730E-1,-1.379060149E0,3.596091032E0,9.636960983E0
9.533622060E-1,-1.458068848E0,3.533841610E0,9.680056572E0
9.554034390E-1,-1.551442742E0,3.469198227E0,9.742305756E0
9.574446720E-1,-1.587355733E0,3.454833031E0,9.823708534E0
9.594859380E-1,-1.613691926E0,3.418920040E0,1.002961063E1
9.615427380E-1,-1.635239720E0,3.351882458E0,1.025227070E1
9.635995710E-1,-1.625662923E0,3.308786631E0,1.049647999E1
9.656564040E-1,-1.608903527E0,3.268085241E0,1.068562126E1
9.677132700E-1,-1.611297727E0,3.229778051E0,1.073111153E1
9.697701700E-1,-1.534683347E0,3.162740469E0,1.073111153E1
9.718270700E-1,-1.450886250E0,3.124433279E0,1.063534355E1
9.738840360E-1,-1.431732655E0,3.114856482E0,1.060421848E1
9.759124690E-1,-1.446097851E0,3.090914488E0,1.056112289E1
9.779408690E-1,-1.431732655E0,3.093308687E0,1.050605679E1
9.799692350E-1,-1.434126854E0,3.083731890E0,1.047493172E1
9.819975350E-1,-1.424550056E0,3.062183857E0,1.040789413E1
9.840259010E-1,-1.391031146E0,3.071760893E0,1.029776096E1
9.860542340E-1,-1.388636947E0,3.074155092E0,1.023072338E1
9.880825670E-1,-1.307234168E0,3.088520288E0,1.000566864E1
9.901109000E-1,-1.223437071E0,3.066972494E0,9.730335236E0
9.921392660E-1,-1.297657371E0,3.045424461E0,9.581894875E0
9.941675990E-1,-1.312022567E0,3.057395458E0,9.435848236E0
9.961978650E-1,-1.340752959E0,3.057395458E0,9.395146370E0
9.982261650E-1,-1.412579060E0,3.059789658E0,9.349657059E0
1.000254465E0,-1.441309452E0,3.074155092E0,9.330503464E0
1.002282865E0,-1.450886250E0,3.090914488E0,9.246706009E0
1.004311331E0,-1.386242747E0,3.110068083E0,9.124602318E0
1.006339764E0,-1.338358760E0,3.126827478E0,9.055170059E0
1.008368164E0,-1.233013868E0,3.169923067E0,8.925883293E0
1.010396564E0,-1.158793569E0,3.265691042E0,8.901941299E0
1.012424930E0,-1.120486379E0,3.330334663E0,8.928277016E0
1.014453363E0,-1.094150186E0,3.505111217E0,9.040804863E0
1.016481896E0,-1.017535686E0,3.684676409E0,9.143755913E0
1.018510462E0,-9.672574997E-1,3.792415380E0,9.277831078E0
1.020539028E0,-9.481038451E-1,4.005499363E0,9.349657059E0
1.022552061E0,-9.433154464E-1,4.175487995E0,9.457395554E0
1.024565094E0,-8.690952063E-1,4.347870350E0,9.557952881E0
1.026578127E0,-8.116343617E-1,4.429273129E0,9.591471672E0
1.028591127E0,-6.584054828E-1,4.594472885E0,9.615413666E0
1.030604160E0,-5.243301988E-1,4.742913723E0,9.639355659E0
1.032617193E0,-4.908113480E-1,4.797980309E0,9.675268173E0
1.034630259E0,-4.022258818E-1,4.934749126E0,9.732728958E0
1.036643292E0,-2.873041928E-1,5.068824291E0,9.687239647E0
1.038656325E0,-2.370259613E-1,5.128679276E0,9.660902977E0
1.040669391E0,-1.364694983E-1,5.236418247E0,9.565135002E0
1.042691757E0,-5.267243832E-2,5.332186222E0,9.397541046E0
1.044714123E0,-1.197100803E-2,5.406406879E0,9.213187218E0
1.046736489E0,2.873042040E-2,5.427954674E0,9.129390717E0
1.048758922E0,1.173158810E-1,5.442319870E0,8.954613686E0
1.050781355E0,2.059013397E-1,5.363311291E0,8.765471458E0
1.052803821E0,3.591302633E-1,5.315426826E0,8.518868446E0
1.054826287E0,4.764461517E-1,5.269937038E0,8.262689590E0
1.056847787E0,3.591302633E-1,5.245995045E0,8.281843185E0
1.058871287E0,1.053448766E-1,5.231629848E0,8.387187958E0
1.060894853E0,-2.873042040E-2,5.231629848E0,8.430283546E0
1.062918353E0,-2.633621991E-1,5.212476254E0,8.559570312E0
1.064941853E0,-4.860229492E-1,5.188534260E0,8.672098160E0
1.066965419E0,-5.506663918E-1,5.169380665E0,8.705616951E0
1.068989019E0,-6.919242740E-1,5.135861874E0,8.691251755E0
1.071012619E0,-7.422025204E-1,5.080795288E0,8.585906982E0
1.073036252E0,-7.445967197E-1,5.044882298E0,8.511686325E0
1.075059818E0,-7.733271718E-1,4.963479519E0,8.396764755E0
1.077111784E0,-8.475474119E-1,4.814739704E0,8.308178902E0
1.079163784E0,-8.667010069E-1,4.764461517E0,8.291419983E0
1.081215817E0,-9.217676520E-1,4.709394932E0,8.296208382E0
1.083267883E0,-9.672574997E-1,4.673481941E0,8.368034363E0
1.085319949E0,-9.672574997E-1,4.661510944E0,8.401553154E0
1.087372015E0,-8.978256583E-1,4.627991676E0,8.437465668E0
1.089424115E0,-7.852981687E-1,4.601655483E0,8.442254066E0
1.091476181E0,-7.948749661E-1,4.580107689E0,8.514080048E0
1.093528247E0,-7.996633649E-1,4.515464306E0,8.636184692E0
1.095580280E0,-8.499416113E-1,4.481945515E0,8.782231331E0
1.097632346E0,-9.313444495E-1,4.474762917E0,8.897152901E0
1.099684412E0,-1.173158884E0,4.496310711E0,9.115025520E0
1.101736478E0,-1.407790542E0,4.539406300E0,9.179668427E0
1.103779311E0,-1.618480325E0,4.620809078E0,9.119813919E0
1.105822111E0,-1.723825216E0,4.659116745E0,9.086295128E0
1.107864911E0,-1.903390408E0,4.759673119E0,8.971372604E0
1.109907677E0,-1.958456993E0,4.838681698E0,8.798990250E0
1.111950477E0,-1.900996208E0,4.845864296E0,8.681674957E0
1.113993243E0,-1.745373011E0,4.874594688E0,8.439860344E0
1.116036043E0,-1.608903527E0,4.874594688E0,8.262689590E0
1.118077776E0,-1.544260144E0,4.869806290E0,8.226776123E0
1.120119442E0,-1.472434044E0,4.865017891E0,8.202834129E0
1.122161042E0,-1.395819545E0,4.886565685E0,8.238747597E0
1.124204542E0,-1.343147159E0,4.903624535E0,8.248324394E0
1.126246075E0,-1.304839969E0,4.973056316E0,8.217199326E0
1.128287541E0,-1.211466074E0,5.028122902E0,8.169315338E0
1.130329007E0,-1.108515382E0,5.076006889E0,8.119037628E0
1.132370440E0,-1.067813993E0,5.145438671E0,8.092700958E0
1.134411873E0,-1.000776291E0,5.226841450E0,8.056788445E0
1.136453339E0,-9.481038451E-1,5.308244228E0,8.080730438E0
1.138466405E0,-9.241618514E-1,5.322609425E0,8.080730438E0
1.140479471E0,-8.858546019E-1,5.368099689E0,8.073547363E0
1.142492537E0,-8.331822157E-1,5.401618481E0,8.066365242E0
1.144505637E0,-8.236053586E-1,5.408801079E0,8.066365242E0
1.146518737E0,-8.044517636E-1,5.420772076E0,8.044816971E0
1.148531837E0,-7.733271718E-1,5.430348873E0,8.030451775E0
1.150544937E0,-7.422025204E-1,5.442319870E0,8.030451775E0
1.152558037E0,-7.326257229E-1,5.463867664E0,8.032846451E0
1.154571170E0,-7.182605267E-1,5.480627060E0,8.061576843E0
1.156584270E0,-6.919242740E-1,5.494992256E0,8.114249229E0
1.158625903E0,-6.440402865E-1,5.514145851E0,8.169315338E0
1.160667603E0,-5.770025849E-1,5.542876244E0,8.221987724E0
1.162709336E0,-5.363011956E-1,5.547664642E0,8.253112793E0
1.164751036E0,-5.386953950E-1,5.559635639E0,8.322544098E0
1.166792736E0,-5.530605912E-1,5.538087845E0,8.425495148E0
1.168834469E0,-5.434837937E-1,5.540482044E0,8.473379135E0
1.170876202E0,-5.267243981E-1,5.528511047E0,8.561964989E0
1.172917902E0,-5.267243981E-1,5.509357452E0,8.640973091E0
1.174959602E0,-5.051765442E-1,5.514145851E0,8.667309761E0
1.177001302E0,-4.932055473E-1,5.509357452E0,8.691251755E0
1.179043102E0,-4.908113480E-1,5.511751652E0,8.672098160E0
1.181084902E0,-4.979939461E-1,5.499780655E0,8.624214172E0
1.183126768E0,-4.932055473E-1,5.459079266E0,8.588300705E0
1.185166701E0,-4.572925270E-1,5.444714069E0,8.499714851E0
1.187208601E0,-3.878606856E-1,5.427954674E0,8.415918350E0
1.189250534E0,-3.327940404E-1,5.430348873E0,8.375216484E0
1.191292500E0,-3.184288144E-1,5.432743073E0,8.310573578E0
1.193334500E0,-3.830722570E-1,5.427954674E0,8.365639687E0
1.195376533E0,-4.070142806E-1,5.408801079E0,8.377611160E0
1.197418566E0,-3.232172430E-1,5.377676487E0,8.322544098E0
1.199460566E0,-2.585737705E-1,5.382464886E0,8.253112793E0
1.201502466E0,-2.609679997E-1,5.408801079E0,8.198045731E0
1.203544299E0,-3.758896589E-1,5.494992256E0,8.145373344E0
1.205589099E0,-5.889736414E-1,5.669768810E0,8.176498413E0
1.207633932E0,-8.451532125E-1,5.866093636E0,8.253112793E0
1.209678798E0,-9.409212470E-1,5.937919617E0,8.272266388E0
1.211723698E0,-8.954314590E-1,6.040870190E0,8.195652008E0
1.213768598E0,-6.967126727E-1,6.021716595E0,8.128614426E0
1.215813498E0,-5.746083856E-1,5.988197803E0,8.102277756E0
1.217858431E0,-3.687070608E-1,5.935525417E0,8.040028572E0
1.219874864E0,-2.801215947E-1,5.882853031E0,8.008903503E0
1.221891230E0,-2.513911724E-1,5.868487835E0,7.999327183E0
1.223907530E0,-2.561795712E-1,5.842151642E0,8.001721382E0
1.225923863E0,-2.873041928E-1,5.851728439E0,7.949048996E0
1.227940196E0,-2.968810201E-1,5.856516838E0,7.879617214E0
1.229956462E0,-3.088520169E-1,5.902006626E0,7.841310024E0
1.231972728E0,-3.543418646E-1,5.952284813E0,7.743147373E0
1.233988994E0,-3.687070608E-1,6.000168800E0,7.597101212E0
1.236005260E0,-3.711012602E-1,6.021716595E0,7.527669430E0
1.238021493E0,-3.280056417E-1,6.105513573E0,7.266701221E0
1.240037693E0,-3.136404157E-1,6.141426563E0,7.175721645E0
1.242053893E0,-3.040636182E-1,6.170156956E0,7.113472462E0
1.244070093E0,-2.609679997E-1,6.196493149E0,7.024887085E0
1.246086293E0,-2.394201756E-1,6.218040943E0,7.017704487E0
1.248102426E0,-2.992752194E-1,6.074388981E0,6.998550892E0
1.250118559E0,-4.740519226E-1,5.720046997E0,6.917148113E0
1.252134625E0,-5.075707436E-1,5.753565788E0,7.079953671E0
1.254150691E0,-5.051765442E-1,5.818209171E0,7.151779652E0
1.256166691E0,-4.333505034E-1,5.954679012E0,7.214028835E0
1.258182657E0,-2.944868207E-1,6.076783180E0,7.192481041E0
1.260198623E0,-1.580173075E-1,6.239588737E0,7.252336025E0
1.262214623E0,-1.149216816E-1,6.347328186E0,7.324162483E0
1.264230623E0,-1.508347094E-1,6.534075737E0,7.489362240E0
1.266243623E0,-2.873041928E-1,6.694487095E0,7.592312813E0
1.268256589E0,-3.375824392E-1,6.761524677E0,7.609072208E0
1.270269522E0,-3.016694188E-1,6.840533733E0,7.589918613E0
1.272282388E0,-1.723825186E-1,6.857293129E0,7.539640427E0
1.274295221E0,-1.005564705E-1,6.833351135E0,7.518092632E0
1.276307987E0,1.197100803E-2,6.749553680E0,7.443872452E0
1.278320720E0,-4.309562966E-2,6.534075737E0,7.324162483E0
1.280333353E0,-1.412578970E-1,6.316203594E0,7.180510044E0
1.282345986E0,-2.944868207E-1,6.074388981E0,6.991368294E0
1.284358686E0,-3.663128614E-1,6.043264389E0,6.921936512E0
1.286380552E0,-4.261679053E-1,6.060023785E0,6.775889874E0
1.288402452E0,-4.572925270E-1,6.088754177E0,6.708852291E0
1.290424385E0,-4.955997467E-1,6.139032364E0,6.692092896E0
1.292446318E0,-5.482721925E-1,6.174945354E0,6.713640690E0
1.294468251E0,-5.913678408E-1,6.167762756E0,6.675333500E0
1.296490151E0,-6.200982332E-1,6.139032364E0,6.632237911E0
1.298512051E0,-6.416460276E-1,6.098330975E0,6.490980148E0
1.300533951E0,-6.512228847E-1,6.107907772E0,6.445490360E0
1.302555817E0,-6.536170840E-1,6.124667168E0,6.397606373E0
1.304577650E0,-6.512228847E-1,6.162974358E0,6.306626320E0
1.306599550E0,-6.560112834E-1,6.225223541E0,6.196493149E0
1.308621483E0,-6.679822803E-1,6.256348133E0,6.129455566E0
1.310643483E0,-7.182605267E-1,6.287472725E0,6.009745598E0
1.312665483E0,-8.427590132E-1,6.277895927E0,5.925948620E0
1.314687483E0,-9.074024558E-1,6.273107529E0,5.911583424E0
1.316709549E0,-1.017535686E0,6.213252544E0,5.928342819E0
1.318731649E0,-1.070208192E0,6.122272968E0,5.892429829E0
1.321670649E0,-1.058237195E0,6.040870190E0,5.866093636E0
1.323770315E0,-9.696516991E-1,6.007351398E0,5.822998047E0
1.325783315E0,-8.499416113E-1,6.021716595E0,5.741594791E0
1.327796315E0,-7.972691655E-1,6.067206383E0,5.691316605E0
1.329809315E0,-6.560112834E-1,6.189310551E0,5.621884823E0
1.331822315E0,-5.554547906E-1,6.320991993E0,5.585971832E0
1.333835315E0,-5.291185975E-1,6.368875980E0,5.595548630E0
1.335848315E0,-5.171475410E-1,6.512527943E0,5.626673222E0
1.337861148E0,-4.884171486E-1,6.639420509E0,5.672163010E0
1.339874148E0,-4.357447028E-1,6.730400085E0,5.743988991E0
1.341887023E0,-3.998316824E-1,6.790255070E0,5.755959988E0
1.343899911E0,-3.782838583E-1,6.886023521E0,5.801449776E0
1.345912911E0,-4.309563041E-1,6.909965515E0,5.858911037E0
1.347925820E0,-4.237737060E-1,6.917148113E0,5.851728439E0
1.349938736E0,-3.734954596E-1,6.931513309E0,5.779901981E0
1.351951736E0,-3.495534360E-1,6.988974094E0,5.758354187E0
1.353964664E0,-3.016694188E-1,6.993762493E0,5.767930984E0
1.355977597E0,-1.651999205E-1,6.977003098E0,5.686528206E0
1.357990472E0,-3.591302410E-2,6.945878506E0,5.585971832E0
1.360003295E0,6.703764945E-2,6.912359715E0,5.490203857E0
1.362015961E0,1.101332754E-1,6.886023521E0,5.425560474E0
1.364028592E0,1.723825186E-1,6.881235123E0,5.269937038E0
1.366041142E0,1.819593310E-1,6.897994518E0,5.214870453E0
1.368056808E0,1.508347094E-1,6.960243702E0,5.126285076E0
1.370069308E0,3.112462163E-2,7.015310287E0,5.083189487E0
1.372081786E0,-1.197100878E-1,7.091924667E0,5.059247494E0
1.374094244E0,-1.939303428E-1,7.118260860E0,5.073612690E0
1.376106724E0,-3.208230138E-1,7.113472462E0,5.126285076E0
1.378119262E0,-3.639186621E-1,7.103895664E0,5.198111057E0
1.380131817E0,-3.639186621E-1,7.094318867E0,5.226841450E0
1.382144352E0,-3.471592367E-1,7.067982674E0,5.248389244E0
1.384156903E0,-4.381389022E-1,7.024887085E0,5.332186222E0
1.386169436E0,-4.860229492E-1,6.984185696E0,5.375282288E0
1.388181969E0,-5.219359994E-1,6.914753914E0,5.399224281E0
1.390194502E0,-5.578489900E-1,6.859687328E0,5.418377876E0
1.392207035E0,-5.889736414E-1,6.835745335E0,5.444714069E0
1.394219535E0,-6.895300746E-1,6.852504730E0,5.516540051E0
1.396232035E0,-7.852981687E-1,6.878840923E0,5.526116848E0
1.398244535E0,-7.805097699E-1,6.869264126E0,5.530905247E0
1.400256968E0,-7.445967197E-1,6.864475727E0,5.528511047E0
1.402297968E0,-6.560112834E-1,6.857293129E0,5.578789234E0
1.404339001E0,-6.248866320E-1,6.850110531E0,5.588366032E0
1.406380001E0,-5.650315881E-1,6.886023521E0,5.569212437E0
1.408421034E0,-5.482721925E-1,6.902782917E0,5.511751652E0
1.410462034E0,-5.698199868E-1,6.886023521E0,5.468656063E0
1.412502967E0,-6.991068721E-1,6.708852291E0,5.210082054E0
1.414543867E0,-7.733271718E-1,6.716034889E0,5.250783443E0
1.416584767E0,-7.876923680E-1,6.763918877E0,5.303455830E0
1.418625633E0,-7.924807668E-1,6.871658325E0,5.329792023E0
1.420666533E0,-7.350199223E-1,6.893206120E0,5.195716858E0
1.422707466E0,-7.350199223E-1,6.883629322E0,5.047276497E0
1.424748432E0,-7.541735172E-1,6.921936512E0,5.035305500E0
1.426789465E0,-7.398083210E-1,6.981791496E0,5.011363506E0
1.428828298E0,-6.631938815E-1,6.960243702E0,4.893748283E0
1.430869364E0,-5.961562395E-1,6.905177116E0,4.807557106E0
1.432910497E0,-4.525041282E-1,6.845322132E0,4.699818134E0
1.434951630E0,-3.375824392E-1,6.888417721E0,4.680664539E0
1.436992796E0,-2.896983922E-1,6.950666904E0,4.678270340E0
1.439033929E0,-2.154781520E-1,7.125443459E0,4.625597477E0
1.441075062E0,-1.963245422E-1,7.305008888E0,4.529829502E0
1.443116128E0,-2.011129409E-1,7.374440670E0,4.474762917E0
1.445157128E0,-2.274491638E-1,7.458237648E0,4.369418144E0
1.447198128E0,-2.585737705E-1,7.486968040E0,4.307168961E0
1.449242094E0,-3.088520169E-1,7.443872452E0,4.285621166E0
1.451286060E0,-3.184288144E-1,7.415142059E0,4.278438568E0
1.453330026E0,-2.920926213E-1,7.364863873E0,4.228160381E0
1.455374026E0,-2.777273953E-1,7.333739281E0,4.201824188E0
1.457418026E0,-2.849099934E-1,7.319374084E0,4.228160381E0
1.459461992E0,-2.968810201E-1,7.264307022E0,4.261679173E0
1.461505958E0,-2.705447972E-1,7.228394032E0,4.264073372E0
1.463521358E0,-2.537853718E-1,7.225999832E0,4.261679173E0
1.465536758E0,-2.442085743E-1,7.225999832E0,4.302380562E0
1.467552124E0,-2.466027737E-1,7.261912823E0,4.280832767E0
1.469567490E0,-2.537853718E-1,7.278672218E0,4.261679173E0
1.471582890E0,-2.633621991E-1,7.328950882E0,4.230554581E0
1.473598323E0,-2.657563984E-1,7.386411667E0,4.194641590E0
1.475613823E0,-2.896983922E-1,7.443872452E0,4.170699596E0
1.477629323E0,-2.896983922E-1,7.460631847E0,4.156333923E0
1.479644889E0,-3.112462163E-1,7.467814445E0,4.153939724E0
1.481660455E0,-3.064578176E-1,7.455843449E0,4.194641590E0
1.483676021E0,-2.992752194E-1,7.443872452E0,4.218583584E0
1.485691587E0,-2.896983922E-1,7.417536259E0,4.288015366E0
1.487707087E0,-3.208230138E-1,7.391200066E0,4.367023945E0
1.489722620E0,-3.351882398E-1,7.360075474E0,4.402936935E0
1.491738120E0,-3.160346150E-1,7.307403088E0,4.465186119E0
1.493753553E0,-2.920926213E-1,7.269095421E0,4.493916512E0
1.495769019E0,-2.777273953E-1,7.261912823E0,4.529829502E0
1.497784385E0,-2.944868207E-1,7.233182430E0,4.651933670E0
1.499799751E0,-3.184288144E-1,7.235576630E0,4.671087742E0
1.501815084E0,-3.208230138E-1,7.252336025E0,4.594472885E0
1.503830484E0,-2.944868207E-1,7.259518623E0,4.551377296E0
1.505845917E0,-2.226607651E-1,7.278672218E0,4.462791920E0
1.507861350E0,-1.819593310E-1,7.328950882E0,4.359841347E0
1.509873750E0,-1.556231081E-1,7.364863873E0,4.307168961E0
1.511886183E0,-1.508347094E-1,7.427113056E0,4.249708176E0
1.513898516E0,-2.082955539E-1,7.455843449E0,4.252102375E0
1.515910849E0,-2.274491638E-1,7.458237648E0,4.259284973E0
1.517923215E0,-2.513911724E-1,7.443872452E0,4.264073372E0
1.519935648E0,-3.016694188E-1,7.407959461E0,4.304774761E0
1.521948148E0,-3.208230138E-1,7.400776863E0,4.309563160E0
1.523960581E0,-3.926490843E-1,7.379229069E0,4.302380562E0
1.525972881E0,-4.596867263E-1,7.348104477E0,4.249708176E0
1.527985147E0,-5.291185975E-1,7.345710278E0,4.165910721E0
1.530007313E0,-5.626373887E-1,7.314585686E0,4.118026733E0
1.532029513E0,-6.296750307E-1,7.309797287E0,4.039018154E0
1.534051713E0,-6.895300746E-1,7.312191486E0,3.974374771E0
1.536073913E0,-7.278373241E-1,7.309797287E0,3.945644379E0
1.538096113E0,-7.589619160E-1,7.305008888E0,3.952826977E0
1.540118313E0,-8.020575643E-1,7.290643215E0,3.969586372E0
1.542140513E0,-8.355764151E-1,7.314585686E0,4.034229755E0
1.544162713E0,-8.283938169E-1,7.321768284E0,4.065354347E0
1.546184913E0,-7.996633649E-1,7.360075474E0,4.101267338E0
1.548207213E0,-7.972691655E-1,7.388805866E0,4.108449936E0
1.550229513E0,-7.876923680E-1,7.412747860E0,4.118026733E0
1.552251846E0,-7.445967197E-1,7.467814445E0,4.141968727E0
1.554274146E0,-6.991068721E-1,7.539640427E0,4.156333923E0
1.556296446E0,-6.679822803E-1,7.577947617E0,4.177882195E0
1.558318779E0,-6.033388376E-1,7.671321392E0,4.206612587E0
1.560341079E0,-5.506663918E-1,7.752724171E0,4.244919777E0
1.562363412E0,-4.884171486E-1,7.829339027E0,4.256890774E0
1.564414245E0,-4.094084799E-1,7.913136005E0,4.283226967E0
1.566465145E0,-3.663128614E-1,7.941866398E0,4.299986362E0
1.568516045E0,-3.639186621E-1,7.961019993E0,4.304774761E0
1.570567011E0,-3.423708379E-1,8.001721382E0,4.307168961E0
1.572618011E0,-3.232172430E-1,8.004115105E0,4.326322556E0
1.574669077E0,-3.016694188E-1,8.006509781E0,4.347870350E0
1.576720177E0,-2.609679997E-1,8.011298180E0,4.400542736E0
1.578771277E0,-2.489969730E-1,8.001721382E0,4.455609322E0
1.580822343E0,-2.466027737E-1,7.989750385E0,4.498704910E0
1.582873443E0,-2.561795712E-1,7.975385189E0,4.594472885E0
1.584924676E0,-2.442085743E-1,7.965808392E0,4.692635536E0
1.586976009E0,-2.513911724E-1,7.958625793E0,4.814739704E0
1.589027375E0,-2.657563984E-1,7.949048996E0,4.862623692E0
1.591068875E0,-2.944868207E-1,7.922712803E0,4.953902721E0
1.593110308E0,-3.256114423E-1,7.903559208E0,5.037699699E0
1.595151708E0,-3.471592367E-1,7.908347607E0,5.087977886E0
1.597193108E0,-3.878606856E-1,7.901165009E0,5.159803867E0
1.599234541E0,-4.213795066E-1,7.908347607E0,5.188534260E0
1.601275974E0,-4.572925270E-1,7.913136005E0,5.193322659E0
1.603317407E0,-4.884171486E-1,7.891588211E0,5.162198067E0
1.605358840E0,-5.075707436E-1,7.889194012E0,5.155015469E0
1.607400240E0,-5.195417404E-1,7.884405613E0,5.155015469E0
1.609441573E0,-5.267243981E-1,7.893982410E0,5.133467674E0
1.611484306E0,-5.554547906E-1,7.946654797E0,5.133467674E0
1.613525672E0,-5.674257874E-1,7.956231594E0,5.107131481E0
1.615567105E0,-5.770025849E-1,7.996932983E0,5.090372086E0
1.617608605E0,-5.841852427E-1,8.059182167E0,5.080795288E0
1.619650138E0,-5.650315881E-1,8.104672432E0,5.059247494E0
1.621691704E0,-5.554547906E-1,8.131008148E0,5.061641693E0
1.623733304E0,-5.434837937E-1,8.186075211E0,5.059247494E0
1.625746437E0,-5.243301988E-1,8.233959198E0,5.054459095E0
1.627759537E0,-4.979939461E-1,8.257901192E0,5.052064896E0
1.629772637E0,-4.453215301E-1,8.291419983E0,5.035305500E0
1.631785770E0,-3.878606856E-1,8.324938774E0,5.042488098E0
1.633798836E0,-3.902548850E-1,8.351274490E0,5.042488098E0
1.635811936E0,-3.711012602E-1,8.387187958E0,5.049670696E0
1.637824969E0,-3.711012602E-1,8.399158478E0,5.035305500E0
1.639837935E0,-3.782838583E-1,8.401553154E0,5.032911301E0
1.641850901E0,-3.830722570E-1,8.406341553E0,5.008969307E0
1.643863834E0,-3.734954596E-1,8.420706749E0,4.961085320E0
1.646806834E0,-3.591302633E-1,8.442254066E0,4.927566528E0
1.648819315E0,-3.375824392E-1,8.454225540E0,4.903624535E0
1.650832315E0,-3.303998411E-1,8.463802338E0,4.903624535E0
1.652845315E0,-3.136404157E-1,8.466196060E0,4.913201332E0
1.654858315E0,-2.753331959E-1,8.478167534E0,4.958691120E0
1.656870648E0,-2.466027737E-1,8.497321129E0,5.018546104E0
1.658882898E0,-2.059013397E-1,8.506897926E0,5.056853294E0
1.660895098E0,-1.268926859E-1,8.514080048E0,5.126285076E0
1.662907431E0,-9.097966552E-2,8.504503250E0,5.174169064E0
1.664919859E0,-6.703764945E-2,8.497321129E0,5.257966042E0
1.666939109E0,-4.788403213E-2,8.497321129E0,5.313032627E0
1.668957775E0,-4.788403213E-2,8.492532730E0,5.423166275E0
1.670975775E0,-5.267243832E-2,8.487744331E0,5.483021259E0
1.672993229E0,-5.506663769E-2,8.485349655E0,5.504569054E0
1.675010312E0,-6.464344263E-2,8.470984459E0,5.533299446E0
1.677027081E0,-8.140286058E-2,8.425495148E0,5.547664642E0
1.679043509E0,-9.576806426E-2,8.415918350E0,5.523722649E0
1.681059709E0,-1.580173075E-1,8.384793282E0,5.499780655E0
1.683075771E0,-2.106897533E-1,8.339303970E0,5.447108269E0
1.685091653E0,-2.298433632E-1,8.312967300E0,5.351340294E0
1.687107208E0,-2.418143749E-1,8.293813705E0,5.301061630E0
1.689122471E0,-2.537853718E-1,8.272266388E0,5.212476254E0
1.691137521E0,-2.801215947E-1,8.243535995E0,5.152621269E0
1.693161235E0,-2.896983922E-1,8.238747597E0,5.119102478E0
1.695184462E0,-3.064578176E-1,8.245929718E0,5.059247494E0
1.697207201E0,-3.256114423E-1,8.253112793E0,5.025728703E0
1.699229492E0,-3.639186621E-1,8.260294914E0,5.023334503E0
1.701251372E0,-4.309563041E-1,8.272266388E0,5.004180908E0
1.703272910E0,-4.333505034E-1,8.284236908E0,4.985027313E0
1.705294095E0,-4.237737060E-1,8.289025307E0,4.958691120E0
1.707314952E0,-4.141969085E-1,8.298602104E0,4.941931725E0
1.709335538E0,-4.022258818E-1,8.298602104E0,4.888959885E0
1.711355838E0,-3.974374831E-1,8.320150375E0,4.819528103E0
1.713376138E0,-4.165911078E-1,8.329727173E0,4.800374508E0
1.715396404E0,-4.644751251E-1,8.327332497E0,4.778826714E0
1.717416737E0,-5.099649429E-1,8.339303970E0,4.771644115E0
1.719437103E0,-5.219359994E-1,8.327332497E0,4.769249916E0
1.721457436E0,-5.195417404E-1,8.298602104E0,4.745307922E0
1.723477736E0,-5.626373887E-1,8.279448509E0,4.721365929E0
1.725498036E0,-5.841852427E-1,8.233959198E0,4.668693542E0
1.727518502E0,-5.746083856E-1,8.217199326E0,4.647145271E0
1.729536902E0,-6.057330370E-1,8.193257332E0,4.584896088E0
1.731555368E0,-6.368576288E-1,8.174103737E0,4.548983097E0
1.733573901E0,-6.368576288E-1,8.164526939E0,4.541800499E0
1.735592434E0,-6.296750307E-1,8.186075211E0,4.522646904E0
1.737610967E0,-6.344634295E-1,8.207622528E0,4.544194698E0
1.739629533E0,-6.200982332E-1,8.219594002E0,4.556165695E0
1.741648099E0,-5.770025849E-1,8.226776123E0,4.596867085E0
1.743666665E0,-5.315127969E-1,8.257901192E0,4.630385876E0
1.745685198E0,-5.099649429E-1,8.274660110E0,4.651933670E0
1.747703798E0,-4.357447028E-1,8.298602104E0,4.695029736E0
1.749722498E0,-3.758896589E-1,8.334515572E0,4.733336926E0
1.751741231E0,-3.423708379E-1,8.341697693E0,4.757278919E0
1.753753831E0,-2.849099934E-1,8.401553154E0,4.800374508E0
1.755766397E0,-2.322375625E-1,8.425495148E0,4.845864296E0
1.757779030E0,-1.963245422E-1,8.425495148E0,4.910807133E0
1.759791663E0,-1.771709323E-1,8.451830864E0,4.941931725E0
1.761804296E0,-1.436520964E-1,8.454225540E0,4.999392509E0
1.763816896E0,-1.221042871E-1,8.437465668E0,5.047276497E0
1.765829529E0,-1.101332754E-1,8.420706749E0,5.064035892E0
1.767842129E0,-7.900865376E-2,8.394370079E0,5.107131481E0
1.769854662E0,-7.422025502E-2,8.341697693E0,5.131073475E0
1.771867162E0,-8.379705995E-2,8.327332497E0,5.152621269E0
1.773888962E0,-1.029506698E-1,8.310573578E0,5.200505257E0
1.775910762E0,-1.460463107E-1,8.281843185E0,5.214870453E0
1.777932495E0,-1.532289088E-1,8.284236908E0,5.238812447E0
1.779954228E0,-1.628057212E-1,8.286631584E0,5.245995045E0
1.781975928E0,-1.628057212E-1,8.308178902E0,5.243600845E0
1.783997628E0,-1.651999205E-1,8.315361977E0,5.214870453E0
1.786019294E0,-1.316810995E-1,8.341697693E0,5.164592266E0
1.788038927E0,-1.077390760E-1,8.348880768E0,5.126285076E0
1.790060660E0,-9.337386489E-2,8.363245964E0,5.047276497E0
1.792082393E0,-1.077390760E-1,8.360851288E0,5.025728703E0
1.794104126E0,-1.364694983E-1,8.341697693E0,5.030517101E0
1.796125892E0,-1.221042871E-1,8.317755699E0,5.052064896E0
1.798147692E0,-7.661445439E-2,8.315361977E0,5.131073475E0
1.800169458E0,-5.746084079E-2,8.310573578E0,5.169380665E0
1.802191224E0,-5.027823523E-2,8.339303970E0,5.186140060E0
1.804212957E0,-8.619125932E-2,8.363245964E0,5.188534260E0
1.806234723E0,-9.816227108E-2,8.377611160E0,5.181351662E0
1.809177723E0,-1.125274822E-1,8.439860344E0,5.159803867E0
1.811268315E0,-1.292868853E-1,8.461407661E0,5.140650272E0
1.813281315E0,-1.316810995E-1,8.490138054E0,5.114314079E0
1.815294315E0,-1.173158810E-1,8.502109528E0,5.095160484E0
1.817307315E0,-8.858546615E-2,8.487744331E0,5.116708279E0
1.819320315E0,-7.900865376E-2,8.490138054E0,5.126285076E0
1.821333565E0,-4.548983276E-2,8.461407661E0,5.162198067E0
1.823346965E0,-2.394201700E-3,8.459013939E0,5.202899456E0
1.825360298E0,7.182605099E-3,8.470984459E0,5.224447250E0
1.827373440E0,2.394201607E-2,8.497321129E0,5.272331238E0
1.829386440E0,2.873042040E-2,8.511686325E0,5.310638428E0
1.831399328E0,4.309562966E-2,8.516474724E0,5.336975098E0
1.833412128E0,6.464344263E-2,8.533234596E0,5.404012680E0
1.835425037E0,5.506663769E-2,8.561964989E0,5.456685066E0
1.837437870E0,6.224924326E-2,8.583512306E0,5.478232861E0
1.839450716E0,5.985504389E-2,8.612242699E0,5.511751652E0
1.841463501E0,9.576806426E-2,8.640973091E0,5.530905247E0
1.843476234E0,1.173158810E-1,8.667309761E0,5.550058842E0
1.845488984E0,1.340752989E-1,8.667309761E0,5.559635639E0
1.847501748E0,1.819593310E-1,8.662521362E0,5.648221016E0
1.849514414E0,1.819593310E-1,8.652944565E0,5.674557209E0
1.851526992E0,1.939303428E-1,8.645761490E0,5.708076000E0
1.853539442E0,1.963245422E-1,8.626607895E0,5.782296181E0
1.855554061E0,2.082955539E-1,8.609848976E0,5.861305237E0
1.857566515E0,1.987187415E-1,8.593089104E0,5.878064632E0
1.859578949E0,1.460463107E-1,8.578723907E0,5.918766022E0
1.861591407E0,1.221042871E-1,8.573935509E0,5.923554420E0
1.863603847E0,1.053448766E-1,8.561964989E0,5.902006626E0
1.865616231E0,8.140286058E-2,8.545205116E0,5.844545841E0
1.867628601E0,6.943184882E-2,8.542811394E0,5.753565788E0
1.869640993E0,4.548983276E-2,8.523657799E0,5.655403614E0
1.871653406E0,4.070143029E-2,8.506897926E0,5.605125427E0
1.873665839E0,1.675941236E-2,8.497321129E0,5.487809658E0
1.875678239E0,1.436521020E-2,8.494926453E0,5.384859085E0
1.877690672E0,1.197100803E-2,8.492532730E0,5.341763496E0
1.879703105E0,2.394201607E-2,8.490138054E0,5.257966042E0
1.881715505E0,4.070143029E-2,8.499714851E0,5.190928459E0
1.883727871E0,5.027823523E-2,8.492532730E0,5.164592266E0
1.885740237E0,6.464344263E-2,8.492532730E0,5.138256073E0
1.887752603E0,6.943184882E-2,8.492532730E0,5.085583687E0
1.889793436E0,5.506663769E-2,8.487744331E0,5.066430092E0
1.891834302E0,4.309562966E-2,8.485349655E0,5.073612690E0
1.893875202E0,2.873042040E-2,8.494926453E0,5.066430092E0
1.895916035E0,7.182605099E-3,8.480561256E0,5.080795288E0
1.897956901E0,-4.309562966E-2,8.473379135E0,5.116708279E0
1.899997767E0,-9.337386489E-2,8.425495148E0,5.171774864E0
1.902038667E0,-1.029506698E-1,8.401553154E0,5.222053051E0
1.904079533E0,-1.364694983E-1,8.363245964E0,5.279513836E0
1.906120366E0,-1.675941199E-1,8.312967300E0,5.308244228E0
1.908161199E0,-2.274491638E-1,8.262689590E0,5.317821026E0
1.910202065E0,-2.633621991E-1,8.243535995E0,5.315426826E0
1.912242965E0,-3.495534360E-1,8.224382401E0,5.301061630E0
1.914283898E0,-3.926490843E-1,8.205228806E0,5.286696434E0
1.916323331E0,-4.525041282E-1,8.193257332E0,5.250783443E0
1.918364231E0,-4.884171486E-1,8.142979622E0,5.231629848E0
1.920405131E0,-5.123591423E-1,8.123826027E0,5.224447250E0
1.922445997E0,-5.267243981E-1,8.102277756E0,5.207687855E0
1.924486830E0,-5.458779931E-1,8.092700958E0,5.200505257E0
1.926527663E0,-5.482721925E-1,8.080730438E0,5.193322659E0
1.928568463E0,-5.410895944E-1,8.068758965E0,5.193322659E0
1.930609196E0,-5.410895944E-1,8.066365242E0,5.176563263E0
1.932649829E0,-5.243301988E-1,8.071153641E0,5.116708279E0
1.934690395E0,-5.291185975E-1,8.073547363E0,5.090372086E0
1.936736961E0,-5.267243981E-1,8.080730438E0,5.044882298E0
1.938783494E0,-5.195417404E-1,8.092700958E0,4.980238914E0
1.940829994E0,-5.027823448E-1,8.107066154E0,4.915595531E0
1.942876460E0,-4.860229492E-1,8.114249229E0,4.879383087E0
1.944922893E0,-4.477157295E-1,8.121431351E0,4.836287498E0
1.946969259E0,-4.261679053E-1,8.128614426E0,4.797980309E0
1.949015625E0,-4.141969085E-1,8.131008148E0,4.771644115E0
1.951033525E0,-3.663128614E-1,8.147768021E0,4.730942726E0
1.953051391E0,-3.256114423E-1,8.142979622E0,4.716577530E0
1.955069257E0,-3.136404157E-1,8.152556419E0,4.728548527E0
1.957087123E0,-2.729389966E-1,8.154950142E0,4.723760128E0
1.959104956E0,-2.489969730E-1,8.176498413E0,4.738125324E0
1.961122756E0,-2.346317619E-1,8.181286812E0,4.740519524E0
1.963140522E0,-2.466027737E-1,8.183680534E0,4.750096321E0
1.965158322E0,-2.681505978E-1,8.181286812E0,4.745307922E0
1.967176122E0,-2.849099934E-1,8.188468933E0,4.735731125E0
1.969193888E0,-2.873041928E-1,8.181286812E0,4.714183331E0
1.971213721E0,-3.040636182E-1,8.164526939E0,4.699818134E0
1.973231454E0,-3.040636182E-1,8.126219749E0,4.692635536E0
1.975249254E0,-2.992752194E-1,8.121431351E0,4.687847137E0
1.977267054E0,-2.873041928E-1,8.116642952E0,4.675876141E0
1.979284987E0,-3.184288144E-1,8.107066154E0,4.659116745E0
1.981302953E0,-3.327940404E-1,8.097489357E0,4.659116745E0
1.983320953E0,-3.615244627E-1,8.092700958E0,4.680664539E0
1.985339019E0,-3.758896589E-1,8.116642952E0,4.685452938E0
1.987357119E0,-3.854664862E-1,8.121431351E0,4.704606533E0
1.989375319E0,-3.926490843E-1,8.123826027E0,4.709394932E0
1.991393585E0,-4.022258818E-1,8.131008148E0,4.692635536E0
1.993411951E0,-4.141969085E-1,8.131008148E0,4.683058739E0
1.995430384E0,-4.094084799E-1,8.121431351E0,4.644751072E0
1.997442850E0,-4.094084799E-1,8.104672432E0,4.596867085E0
1.999455316E0,-4.261679053E-1,8.099884033E0,4.572925091E0
2.001467816E0,-4.189853072E-1,8.090307236E0,4.563348293E0
2.003480349E0,-4.046200812E-1,8.075942039E0,4.565742493E0
2.005492915E0,-4.213795066E-1,8.083124161E0,4.584896088E0
2.007505548E0,-4.333505034E-1,8.068758965E0,4.608838081E0
2.009518214E0,-4.333505034E-1,8.073547363E0,4.654327869E0
2.011530880E0,-4.237737060E-1,8.073547363E0,4.683058739E0
2.013543513E0,-4.285621047E-1,8.063970566E0,4.695029736E0
2.015556079E0,-4.285621047E-1,8.071153641E0,4.714183331E0
2.017578145E0,-3.998316824E-1,8.085518837E0,4.726154327E0
2.019600311E0,-4.070142806E-1,8.087912560E0,4.714183331E0
2.021622511E0,-4.094084799E-1,8.087912560E0,4.702212334E0
2.023644744E0,-3.854664862E-1,8.095095634E0,4.699818134E0
2.025667044E0,-3.687070608E-1,8.073547363E0,4.683058739E0
2.027689410E0,-3.567360640E-1,8.075942039E0,4.666299343E0
2.029711843E0,-2.801215947E-1,8.119037628E0,4.683058739E0
2.031732209E0,-2.466027737E-1,8.116642952E0,4.699818134E0
2.033754742E0,-2.202665508E-1,8.119037628E0,4.740519524E0
2.035777242E0,-2.082955539E-1,8.121431351E0,4.762067318E0
2.037799708E0,-1.891419291E-1,8.138191223E0,4.807557106E0
2.039822141E0,-2.082955539E-1,8.145373344E0,4.843470097E0
2.041844607E0,-2.322375625E-1,8.133402824E0,4.860229492E0
2.043867107E0,-2.729389966E-1,8.099884033E0,4.893748283E0
2.045889607E0,-2.944868207E-1,8.071153641E0,4.934749126E0
2.047912140E0,-3.256114423E-1,8.061576843E0,4.944325924E0
2.049934640E0,-3.902548850E-1,8.047211647E0,4.963479519E0
2.051985706E0,-4.381389022E-1,8.054393768E0,4.973056316E0
2.054036772E0,-4.453215301E-1,8.047211647E0,4.980238914E0
2.056087838E0,-4.285621047E-1,8.066365242E0,4.956296921E0
2.058138871E0,-4.237737060E-1,8.092700958E0,4.922778130E0
2.060189871E0,-4.141969085E-1,8.097489357E0,4.903624535E0
2.062240871E0,-3.423708379E-1,8.111854553E0,4.865017891E0
2.064291871E0,-3.351882398E-1,8.140584946E0,4.841075897E0
2.066342837E0,-3.375824392E-1,8.166921616E0,4.843470097E0
2.068393837E0,-2.968810201E-1,8.221987724E0,4.857835293E0
2.070444837E0,-2.418143749E-1,8.260294914E0,4.893748283E0
2.072495870E0,-2.130839527E-1,8.289025307E0,4.906018734E0
2.074546970E0,-1.388636976E-1,8.356062889E0,4.910807133E0
2.076598136E0,-6.464344263E-2,8.435071945E0,4.886565685E0
2.078639836E0,-3.112462163E-2,8.475772858E0,4.872200489E0
2.080681469E0,1.197100803E-2,8.571541786E0,4.862623692E0
2.082723102E0,6.703764945E-2,8.626607895E0,4.872200489E0
2.084764702E0,1.149216816E-1,8.664915085E0,4.915595531E0
2.086806268E0,1.268926859E-1,8.676886559E0,4.934749126E0
2.088847801E0,1.651999205E-1,8.700828552E0,4.973056316E0
2.090889234E0,1.819593310E-1,8.700828552E0,4.985027313E0
2.092930600E0,1.723825186E-1,8.696040154E0,4.977844715E0
2.094971900E0,1.556231081E-1,8.719982147E0,4.953902721E0
2.097013133E0,1.364694983E-1,8.712799072E0,4.932354927E0
2.099055633E0,1.244984865E-1,8.700828552E0,4.917989731E0
2.101096799E0,1.005564705E-1,8.693645477E0,4.913201332E0
2.103137932E0,7.182604820E-2,8.679280281E0,4.906018734E0
2.105178998E0,5.267243832E-2,8.672098160E0,4.906018734E0
2.107220064E0,1.197100803E-2,8.676886559E0,4.922778130E0
2.109261130E0,-1.915361360E-2,8.693645477E0,4.946720123E0
2.111302230E0,-5.506663769E-2,8.705616951E0,4.996998310E0
2.113314763E0,-5.746084079E-2,8.715193748E0,5.025728703E0
2.115327296E0,-7.661445439E-2,8.751106262E0,5.087977886E0
2.117339796E0,-8.858546615E-2,8.772654533E0,5.147832870E0
2.119352329E0,-1.005564705E-1,8.777442932E0,5.181351662E0
2.121364862E0,-1.101332754E-1,8.784625053E0,5.243600845E0
2.123377362E0,-1.101332754E-1,8.791808128E0,5.305850029E0
2.125389862E0,-1.221042871E-1,8.784625053E0,5.339369297E0
2.127402395E0,-1.197100878E-1,8.789413452E0,5.413589478E0
2.129414895E0,-1.101332754E-1,8.782231331E0,5.463867664E0
2.131427361E0,-9.337386489E-2,8.775048256E0,5.485415459E0
2.134369361E0,-9.097966552E-2,8.794201851E0,5.585971832E0
2.136375315E0,-9.816227108E-2,8.808567047E0,5.619490623E0
2.138388315E0,-7.661445439E-2,8.815750122E0,5.641038418E0
2.140400315E0,-2.154781483E-2,8.813355446E0,5.653009415E0
2.142412815E0,-9.576806799E-3,8.832509041E0,5.617096424E0
2.144426148E0,4.788403399E-3,8.856451035E0,5.588366032E0
2.146439398E0,6.224924326E-2,8.897152901E0,5.569212437E0
2.148452798E0,8.140286058E-2,8.957007408E0,5.528511047E0
2.150466298E0,1.029506698E-1,8.983344078E0,5.485415459E0
2.152479726E0,1.939303428E-1,9.079112053E0,5.322609425E0
2.154493101E0,2.226607651E-1,9.110237122E0,5.269937038E0
2.156506434E0,2.825157940E-1,9.143755913E0,5.219658852E0
2.158519734E0,3.016694188E-1,9.220370293E0,5.111919880E0
2.160533188E0,3.351882398E-1,9.280224800E0,5.023334503E0
2.162546688E0,3.758896589E-1,9.342473984E0,4.980238914E0
2.164560226E0,3.926490843E-1,9.349657059E0,4.958691120E0
2.166573797E0,4.309563041E-1,9.399934769E0,4.939537525E0
2.168587463E0,4.596867263E-1,9.399934769E0,4.934749126E0
2.170601150E0,4.836287498E-1,9.407117844E0,4.925172329E0
2.172614797E0,5.195417404E-1,9.404723167E0,4.939537525E0
2.174628297E0,5.291185975E-1,9.407117844E0,4.973056316E0
2.176641718E0,5.434837937E-1,9.402329445E0,4.980238914E0
2.178655018E0,5.722141862E-1,9.397541046E0,4.999392509E0
2.180672541E0,5.626373887E-1,9.361627579E0,5.071218491E0
2.182689904E0,5.482721925E-1,9.325715065E0,5.159803867E0
2.184707077E0,5.291185975E-1,9.301773071E0,5.195716858E0
2.186724077E0,4.525041282E-1,9.251494408E0,5.265148640E0
2.188740917E0,3.926490843E-1,9.213187218E0,5.325003624E0
2.190757609E0,3.758896589E-1,9.184456825E0,5.341763496E0
2.192774164E0,3.327940404E-1,9.126996040E0,5.377676487E0
2.194790556E0,2.513911724E-1,9.083900452E0,5.399224281E0
2.196806831E0,2.130839527E-1,9.052776337E0,5.396830082E0
2.198823064E0,1.580173075E-1,8.978555679E0,5.401618481E0
2.200839330E0,7.182605099E-3,8.708010674E0,5.329792023E0
2.202855596E0,-1.412578970E-1,8.552388191E0,5.272331238E0
2.204871796E0,-1.819593310E-1,8.470984459E0,5.231629848E0
2.206887996E0,-2.035071403E-1,8.530839920E0,5.171774864E0
2.208904162E0,-1.939303428E-1,8.633790970E0,5.126285076E0
2.210920228E0,-1.795651317E-1,8.693645477E0,5.087977886E0
2.212936261E0,-5.267243832E-2,8.913911819E0,5.004180908E0
2.214954327E0,-7.182605099E-3,8.973767281E0,4.992209911E0
2.216970260E0,3.830722719E-2,9.000102997E0,4.958691120E0
2.218986126E0,1.149216816E-1,9.059958458E0,4.814739704E0
2.221001892E0,1.292868853E-1,9.064746857E0,4.709394932E0
2.223017625E0,1.101332754E-1,9.047987938E0,4.723760128E0
2.225033325E0,7.900865376E-2,8.980949402E0,4.781220913E0
2.227048958E0,4.548983276E-2,8.889969826E0,4.750096321E0
2.229064491E0,4.788403213E-2,8.834903717E0,4.733336926E0
2.231079991E0,8.379705995E-2,8.736741066E0,4.680664539E0
2.233095424E0,8.619125932E-2,8.686463356E0,4.589684486E0
2.235110924E0,4.548983276E-2,8.669703484E0,4.520252705E0
2.237126457E0,1.915361360E-2,8.669703484E0,4.496310711E0
2.239142023E0,-3.112462163E-2,8.669703484E0,4.479551315E0
2.241154589E0,-5.027823523E-2,8.662521362E0,4.501099110E0
2.243167122E0,-5.506663769E-2,8.660126686E0,4.534617901E0
2.245179622E0,-2.633621916E-2,8.645761490E0,4.627991676E0
2.247192088E0,-3.112462163E-2,8.576330185E0,4.716577530E0
2.249204554E0,-4.788403213E-2,8.540416718E0,4.738125324E0
2.251216987E0,-6.224924326E-2,8.535628319E0,4.831499100E0
2.253229420E0,-5.746084079E-2,8.578723907E0,4.913201332E0
2.255241820E0,-5.267243832E-2,8.597877502E0,4.934749126E0
2.257254186E0,-4.788403399E-3,8.667309761E0,4.961085320E0
2.259266419E0,4.070143029E-2,8.715193748E0,4.982633114E0
2.261288185E0,6.224924326E-2,8.760683060E0,5.001786709E0
2.263310018E0,7.182604820E-2,8.765471458E0,5.008969307E0
2.265331884E0,6.703764945E-2,8.753500938E0,5.001786709E0
2.267353750E0,6.224924326E-2,8.700828552E0,4.927566528E0
2.269375616E0,4.548983276E-2,8.681674957E0,4.891354084E0
2.271397582E0,4.548983276E-2,8.650549889E0,4.812345505E0
2.273419615E0,6.224924326E-2,8.583512306E0,4.673481941E0
2.275439581E0,8.140286058E-2,8.566753387E0,4.651933670E0
2.277461681E0,8.140286058E-2,8.554781914E0,4.647145271E0
2.279483847E0,6.943184882E-2,8.545205116E0,4.671087742E0
2.281506047E0,8.619125932E-2,8.540416718E0,4.685452938E0
2.283528247E0,7.661445439E-2,8.528446198E0,4.702212334E0
2.285550480E0,2.633621916E-2,8.456619263E0,4.726154327E0
2.287572713E0,-4.548983276E-2,8.396764755E0,4.776432514E0
2.289594979E0,-6.464344263E-2,8.382399559E0,4.833893299E0
2.291617245E0,-6.703764945E-2,8.382399559E0,4.886565685E0
2.293639578E0,-8.379705995E-2,8.382399559E0,4.903624535E0
2.295690478E0,-6.224924326E-2,8.375216484E0,4.906018734E0
2.297741378E0,-7.422025502E-2,8.363245964E0,4.881777287E0
2.299792278E0,-3.112462163E-2,8.322544098E0,4.836287498E0
2.301843178E0,-2.394201607E-2,8.308178902E0,4.817133904E0
2.303894078E0,-7.182605099E-3,8.250718117E0,4.769249916E0
2.305944978E0,-1.436521020E-2,8.210017204E0,4.752490520E0
2.307995911E0,-2.154781483E-2,8.178892136E0,4.754884720E0
2.310046844E0,-3.351882473E-2,8.123826027E0,4.766855717E0
2.312097844E0,-8.858546615E-2,8.095095634E0,4.788403511E0
2.314148810E0,-1.125274822E-1,8.085518837E0,4.809951305E0
2.316199776E0,-1.484405100E-1,8.049605370E0,4.838681698E0
2.318250709E0,-1.628057212E-1,8.032846451E0,4.872200489E0
2.320301709E0,-1.867477298E-1,8.037634850E0,4.884171486E0
2.322343175E0,-2.178723514E-1,8.040028572E0,4.927566528E0
2.324384541E0,-2.274491638E-1,8.025663376E0,4.946720123E0
2.326425874E0,-2.418143749E-1,8.006509781E0,4.920383930E0
2.328467207E0,-2.418143749E-1,7.992144585E0,4.898836136E0
2.330508540E0,-2.609679997E-1,7.975385189E0,4.862623692E0
2.332549840E0,-2.681505978E-1,7.951443195E0,4.778826714E0
2.334591140E0,-2.825157940E-1,7.917924404E0,4.707000732E0
2.336632406E0,-2.753331959E-1,7.903559208E0,4.659116745E0
2.338673672E0,-2.489969730E-1,7.896376610E0,4.556165695E0
2.340714938E0,-2.394201756E-1,7.879617214E0,4.505887508E0
2.342757538E0,-2.130839527E-1,7.872434616E0,4.410119534E0
2.344798838E0,-1.771709323E-1,7.862857819E0,4.307168961E0
2.346840138E0,-1.532289088E-1,7.860463619E0,4.247313976E0
2.348881471E0,-1.412578970E-1,7.858069420E0,4.110844135E0
2.350922771E0,-9.337386489E-2,7.853281021E0,3.979163170E0
2.352964037E0,-4.788403213E-2,7.836521626E0,3.883395195E0
2.355005303E0,-3.591302410E-2,7.822156429E0,3.849876404E0
2.357017936E0,2.154781483E-2,7.822156429E0,3.754108191E0
2.359030569E0,7.900865376E-2,7.838915825E0,3.675099611E0
2.361043235E0,9.097966552E-2,7.829339027E0,3.639186621E0
2.363055901E0,1.125274822E-1,7.776666164E0,3.564966440E0
2.365068567E0,1.125274822E-1,7.723993778E0,3.469198227E0
2.367081267E0,1.125274822E-1,7.692869186E0,3.426102638E0
2.369093933E0,7.900865376E-2,7.640196800E0,3.332728863E0
2.371106566E0,6.464344263E-2,7.592312813E0,3.236960649E0
2.373119166E0,5.506663769E-2,7.561188221E0,3.191470861E0
2.375131799E0,3.591302410E-2,7.498939037E0,3.090914488E0
2.378069799E0,-1.915361360E-2,7.436689854E0,2.925714493E0
2.380068315E0,-2.873042040E-2,7.415142059E0,2.875436306E0
2.382081315E0,-6.224924326E-2,7.364863873E0,2.772485495E0
2.384096315E0,-6.703764945E-2,7.305008888E0,2.667140722E0
2.386110315E0,-9.337386489E-2,7.285854816E0,2.609679937E0
2.388123981E0,-1.340752989E-1,7.223605633E0,2.489969730E0
2.390137481E0,-1.388636976E-1,7.137414455E0,2.358288765E0
2.392150681E0,-1.508347094E-1,7.077559471E0,2.281674147E0
2.394163847E0,-1.556231081E-1,6.972214699E0,2.133233786E0
2.396176989E0,-1.867477298E-1,6.857293129E0,1.987187386E0
2.398189989E0,-2.082955539E-1,6.811803341E0,1.850717902E0
2.400202989E0,-2.418143749E-1,6.711246490E0,1.786074519E0
2.402216089E0,-2.801215947E-1,6.586748123E0,1.640028119E0
2.404229089E0,-2.896983922E-1,6.476614952E0,1.479616642E0
2.406242172E0,-2.777273953E-1,6.419154167E0,1.400607944E0
2.408255248E0,-3.016694188E-1,6.342539787E0,1.254561663E0
2.410268319E0,-2.801215947E-1,6.289866924E0,1.094150186E0
2.412281385E0,-2.753331959E-1,6.256348133E0,1.003170490E0
2.414294447E0,-2.801215947E-1,6.184522152E0,7.876923680E-1
2.416307623E0,-2.609679997E-1,6.088754177E0,5.506663918E-1
2.418320734E0,-2.489969730E-1,6.052841187E0,4.309563041E-1
2.420333839E0,-2.346317619E-1,5.981015205E0,1.891419291E-1
2.422346839E0,-2.178723514E-1,5.894824028E0,-8.619125932E-2
2.424364172E0,-2.178723514E-1,5.789478779E0,-3.687070608E-1
2.426381399E0,-2.178723514E-1,5.743988991E0,-5.099649429E-1
2.428398442E0,-2.298433632E-1,5.619490623E0,-7.924807668E-1
2.430415317E0,-2.801215947E-1,5.485415459E0,-1.096544385E0
2.432432077E0,-3.040636182E-1,5.408801079E0,-1.259350061E0
2.434448653E0,-3.495534360E-1,5.219658852E0,-1.568202138E0
2.436465097E0,-4.237737060E-1,5.030517101E0,-1.869871497E0
2.438481382E0,-4.644751251E-1,4.915595531E0,-2.020706177E0
2.440497588E0,-5.386953950E-1,4.690241337E0,-2.358288765E0
2.442513621E0,-6.009446383E-1,4.472368717E0,-2.683900118E0
2.444529587E0,-6.392518282E-1,4.352658749E0,-2.846705914E0
2.446545487E0,-7.326257229E-1,4.158728123E0,-3.143586874E0
2.448561387E0,-8.427590132E-1,3.960009575E0,-3.394978046E0
2.450577253E0,-9.696516991E-1,3.758896589E0,-3.581725836E0
2.452593119E0,-1.041477680E0,3.672705412E0,-3.648763418E0
2.454608919E0,-1.170764685E0,3.514688015E0,-3.768473387E0
2.456624685E0,-1.295263171E0,3.351882458E0,-3.869029999E0
2.458642251E0,-1.357512355E0,3.270479441E0,-3.907337189E0
2.460657984E0,-1.479616642E0,3.138798475E0,-3.983951569E0
2.462673684E0,-1.594538331E0,3.016694069E0,-4.058171749E0
2.464689384E0,-1.644816518E0,2.959233284E0,-4.101267338E0
2.466705017E0,-1.757344007E0,2.851494312E0,-4.206612587E0
2.468720683E0,-1.836352706E0,2.748543501E0,-4.304774761E0
2.470736316E0,-1.860294700E0,2.707842112E0,-4.367023945E0
2.472751982E0,-1.898601890E0,2.640804529E0,-4.489128113E0
2.474767648E0,-1.889025092E0,2.621650934E0,-4.604049683E0
2.476783248E0,-1.874659896E0,2.590526342E0,-4.702212334E0
2.478798881E0,-1.862688899E0,2.557007313E0,-4.769249916E0
2.480814547E0,-1.812410712E0,2.506729126E0,-4.766855717E0
2.482830313E0,-1.757344007E0,2.497152328E0,-4.733336926E0
2.484843046E0,-1.731007814E0,2.492363930E0,-4.728548527E0
2.486855746E0,-1.647210717E0,2.489969730E0,-4.776432514E0
2.488868479E0,-1.503558636E0,2.475604534E0,-4.891354084E0
2.490881245E0,-1.424550056E0,2.470816135E0,-4.958691120E0
2.492894011E0,-1.285686255E0,2.492363930E0,-5.092766285E0
2.494906777E0,-1.168370485E0,2.487575531E0,-5.286696434E0
2.496919543E0,-1.113303781E0,2.499546528E0,-5.387253284E0
2.498932309E0,-1.010353088E0,2.475604534E0,-5.569212437E0
2.500944975E0,-8.978256583E-1,2.454056740E0,-5.703287601E0
2.502957675E0,-7.829039693E-1,2.439691544E0,-5.787084579E0
2.504979575E0,-7.254431248E-1,2.372653961E0,-5.832574844E0
2.507001541E0,-6.296750307E-1,2.329558372E0,-5.918766022E0
2.509023541E0,-5.363011956E-1,2.274491549E0,-6.004957199E0
2.511045541E0,-4.405331016E-1,2.252943754E0,-6.129455566E0
2.513067541E0,-4.070142806E-1,2.209848166E0,-6.186916351E0
2.515089607E0,-3.423708379E-1,2.190694571E0,-6.282684326E0
2.517111707E0,-2.801215947E-1,2.138022184E0,-6.344933987E0
2.519132040E0,-2.633621991E-1,2.114080191E0,-6.359299183E0
2.521154206E0,-2.346317619E-1,2.044648170E0,-6.344933987E0
2.523176372E0,-2.274491638E-1,1.956062794E0,-6.292261124E0
2.525198572E0,-2.418143749E-1,1.905784607E0,-6.246771336E0
2.527220805E0,-2.944868207E-1,1.778891921E0,-6.129455566E0
2.529243005E0,-3.591302633E-1,1.651999116E0,-5.992986202E0
2.531265238E0,-4.022258818E-1,1.594538331E0,-5.925948620E0
2.533287471E0,-5.386953950E-1,1.441309452E0,-5.789478779E0
2.535309704E0,-6.703764796E-1,1.285686255E0,-5.633855820E0
2.537331970E0,-7.805097699E-1,1.122880578E0,-5.490203857E0
2.539382536E0,-8.882488012E-1,9.337386489E-1,-5.365705490E0
2.541433102E0,-1.017535686E0,7.565677166E-1,-5.250783443E0
2.543483668E0,-1.079784989E0,6.703764796E-1,-5.195716858E0
2.545534301E0,-1.204283476E0,5.195417404E-1,-5.054459095E0
2.547584901E0,-1.278503656E0,3.711012602E-1,-4.884171486E0
2.549635501E0,-1.304839969E0,3.016694188E-1,-4.774038315E0
2.551686101E0,-1.316810966E0,1.723825186E-1,-4.522646904E0
2.553736667E0,-1.278503656E0,1.077390760E-1,-4.187458992E0
2.555787300E0,-1.230619669E0,9.097966552E-2,-3.993528366E0
2.557837966E0,-1.103726983E0,7.422025502E-2,-3.538630009E0
2.559888666E0,-9.457096457E-1,9.097966552E-2,-3.040636063E0
2.561939432E0,-7.565677166E-1,1.149216816E-1,-2.525882721E0
2.563990265E0,-6.631938815E-1,1.915361285E-1,-2.281674147E0
2.566031965E0,-4.525041282E-1,3.016694188E-1,-1.848323703E0
2.568073665E0,-1.867477298E-1,4.237737060E-1,-1.467645645E0
2.570115365E0,-5.027823523E-2,4.764461517E-1,-1.307234168E0
2.572157131E0,2.466027737E-1,5.698199868E-1,-9.935936928E-1
2.574198931E0,5.650315881E-1,6.464344859E-1,-6.560112834E-1
2.576240731E0,7.038952708E-1,6.775590777E-1,-4.620809257E-1
2.578282564E0,1.163581967E0,6.919242740E-1,2.106897533E-1
2.580324364E0,1.292868972E0,6.895300746E-1,4.692635238E-1
2.582366130E0,1.414973259E0,6.775590777E-1,7.398083210E-1
2.584407896E0,1.659181833E0,6.679822803E-1,1.331176162E0
2.586450996E0,1.862688899E0,6.584054828E-1,1.939303398E0
2.588492796E0,2.070984364E0,6.560112834E-1,2.547430515E0
2.590534629E0,2.157175779E0,6.057330370E-1,2.851494312E0
2.592576462E0,2.334346771E0,5.626373887E-1,3.383007050E0
2.594618262E0,2.511517525E0,5.003881454E-1,3.895366192E0
2.596660062E0,2.612074137E0,4.453215301E-1,4.153939724E0
2.598701895E0,2.858676910E0,3.351882398E-1,4.651933670E0
2.600715461E0,3.167528868E0,1.795651317E-1,5.109525681E0
2.602729027E0,3.344699860E0,1.149216816E-1,5.353734493E0
2.604742560E0,3.754108191E0,-2.154781483E-2,5.930737019E0
2.606756060E0,4.201824188E0,-1.101332754E-1,6.646603107E0
2.608769526E0,4.446032524E0,-1.460463107E-1,7.058405876E0
2.610782926E0,4.888959885E0,-2.082955539E-1,8.030451775E0
2.612796292E0,5.339369297E0,-2.657563984E-1,9.141361237E0
2.614809658E0,5.562029839E0,-2.849099934E-1,9.732728958E0
2.616823024E0,5.976226807E0,-3.184288144E-1,1.093701267E1
2.618836424E0,6.450278759E0,-3.902548850E-1,1.216284370E1
2.621771424E0,6.960243702E0,-5.434837937E-1,1.342937660E1
2.623778315E0,7.532457829E0,-7.206547260E-1,1.480634212E1
2.625791315E0,8.078335762E0,-9.217676520E-1,1.640806198E1
2.627803315E0,8.289025307E0,-1.039083481E0,1.730109978E1
2.629815315E0,8.638579369E0,-1.233013868E0,1.930265236E1
2.631827315E0,8.861239433E0,-1.364694953E0,2.161545181E1
2.633839315E0,8.899546623E0,-1.419761658E0,2.283170509E1
2.635851715E0,8.822932243E0,-1.520318031E0,2.529324532E1
2.637864215E0,8.590695381E0,-1.635239720E0,2.762519646E1
2.639876643E0,8.210017204E0,-1.788468719E0,2.972970009E1
2.641891768E0,7.972990990E0,-1.879448295E0,3.068498611E1
2.643906656E0,7.472602844E0,-2.094926596E0,3.235135269E1
2.645921456E0,6.900388718E0,-2.377442360E0,3.366816330E1
2.647936092E0,6.627449512E0,-2.535459518E0,3.420685577E1
2.649950592E0,6.079177380E0,-2.834734917E0,3.507864761E1
2.651965053E0,5.530905247E0,-3.102885485E0,3.565804291E1
2.653979410E0,5.272331238E0,-3.203441858E0,3.585436630E1
2.655993743E0,4.740519524E0,-3.306392431E0,3.614406586E1
2.658007993E0,4.201824188E0,-3.301604033E0,3.626138306E1
2.660022169E0,3.708618402E0,-3.258508444E0,3.623265076E1
2.662036169E0,3.493140221E0,-3.043030262E0,3.616082382E1
2.664050011E0,3.129221678E0,-2.710236311E0,3.594534683E1
2.666063761E0,2.851494312E0,-2.300827742E0,3.561255264E1
2.668081713E0,2.738966703E0,-2.070984364E0,3.540186310E1
2.670099576E0,2.631227732E0,-1.577778935E0,3.488711166E1
2.672117228E0,2.631227732E0,-1.084573388E0,3.420925140E1
2.674134728E0,2.650381327E0,-8.499416113E-1,3.383575439E1
2.676152088E0,2.717418909E0,-3.663128614E-1,3.304806519E1
2.678169241E0,2.837129116E0,5.746084079E-2,3.224840164E1
2.680186241E0,2.906560898E0,2.537853718E-1,3.185575104E1
2.682203098E0,2.930502892E0,6.488286853E-1,3.111594391E1
2.684219822E0,2.961627483E0,1.010353088E0,3.043120193E1
2.686236388E0,2.971204281E0,1.333570361E0,2.983743858E1
2.688253054E0,2.985569477E0,1.489193439E0,2.956210709E1
2.690269754E0,2.995146275E0,1.774103403E0,2.908805466E1
2.692286487E0,2.674323320E0,1.939303398E0,2.926043701E1
2.694303220E0,2.413355350E0,1.829170108E0,3.053894043E1
2.696319886E0,3.584120035E0,2.099714994E0,3.588788605E1
2.698336552E0,6.644208908E0,4.216189384E0,4.103781509E1
2.700353152E0,9.462183952E0,5.593154430E0,4.381269455E1
2.702368952E0,1.034564495E1,5.753565788E0,4.494066238E1
2.704384785E0,1.053239250E1,4.867412090E0,4.634845352E1
2.706400585E0,9.907505989E0,3.950432777E0,4.653998947E1
2.708416385E0,7.910741806E0,1.833958507E0,4.494305801E1
2.710432185E0,5.387253284E0,7.661445439E-2,4.179917145E1
2.712447918E0,2.997540474E0,-5.410895944E-1,3.839940262E1
2.714463618E0,2.035071373E0,-1.185129881E0,3.654150391E1
2.716479251E0,6.200982332E-1,-1.012747288E0,3.229628372E1
2.718494851E0,-3.280056417E-1,2.154781483E-2,2.709128952E1
2.720510384E0,-6.991068721E-1,8.714894056E-1,2.436878395E1
2.722525984E0,-1.218648672E0,2.729389906E0,1.941518021E1
2.724541617E0,-1.316810966E0,4.410119534E0,1.574247456E1
2.726557250E0,-1.252167463E0,5.087977886E0,1.448043156E1
2.728569883E0,-9.289502501E-1,6.153397560E0,1.298166084E1
2.730582416E0,-4.429273009E-1,6.830956936E0,1.241902351E1
2.732594916E0,-1.508347094E-1,7.017704487E0,1.234240913E1
2.734607416E0,4.884171486E-1,7.113472462E0,1.249563789E1
2.736619882E0,1.041477680E0,6.874052525E0,1.310615921E1
2.738632382E0,1.259350061E0,6.620266914E0,1.359936523E1
2.740644882E0,1.604115129E0,5.928342819E0,1.470788002E1
2.742657248E0,1.817199111E0,5.042488098E0,1.573768616E1
2.744669514E0,1.778891921E0,4.086902142E0,1.647031212E1
2.746681780E0,1.644816518E0,3.603273630E0,1.668818474E1
2.748703213E0,1.256955862E0,2.724601507E0,1.677676964E1
2.750724679E0,7.852981687E-1,2.032677174E0,1.645834160E1
2.752746145E0,3.040636182E-1,1.582567334E0,1.582387733E1
2.754767611E0,1.005564705E-1,1.438915253E0,1.544080544E1
2.756789077E0,-2.250549644E-1,1.319205165E0,1.457859325E1
2.758810510E0,-4.309563041E-1,1.326387763E0,1.367597961E1
2.760832010E0,-4.788403511E-1,1.441309452E0,1.274942303E1
2.762854443E0,-4.620809257E-1,1.525106430E0,1.228255367E1
2.764876876E0,-3.998316824E-1,1.726219416E0,1.140867043E1
2.766899309E0,-3.615244627E-1,1.821987510E0,1.103517532E1
2.768921709E0,-2.849099934E-1,1.982398987E0,1.043662453E1
2.770944075E0,-2.250549644E-1,2.123656988E0,1.006312943E1
2.772966475E0,-2.011129409E-1,2.183511972E0,9.960178375E0
2.774988908E0,-1.532289088E-1,2.257732153E0,9.857227325E0
2.777011408E0,-8.619125932E-2,2.303221941E0,9.852438927E0
2.779033908E0,-1.915361360E-2,2.324769735E0,9.890746117E0
2.781056474E0,2.873042040E-2,2.334346771E0,9.936236382E0
2.783987474E0,1.819593310E-1,2.288856745E0,1.018762779E1
2.786120315E0,2.442085743E-1,2.257732153E0,1.031691456E1
2.788133315E0,3.615244627E-1,2.212242365E0,1.060900688E1
2.790147315E0,4.237737060E-1,2.193088770E0,1.092743587E1
2.792160815E0,4.644751251E-1,2.176329374E0,1.109024143E1
2.794174815E0,4.764461517E-1,2.190694571E0,1.142064095E1
2.796188565E0,4.788403511E-1,2.188300371E0,1.171033955E1
2.798202165E0,4.501099288E-1,2.178723574E0,1.194975948E1
2.800215665E0,4.213795066E-1,2.159569979E0,1.203834534E1
2.802229093E0,3.974374831E-1,2.111685991E0,1.212693119E1
2.804242468E0,3.734954596E-1,2.049436569E0,1.215087318E1
2.806255912E0,3.663128614E-1,2.011129379E0,1.211974812E1
2.808269212E0,3.351882398E-1,1.929726601E0,1.200482655E1
2.810282575E0,2.873041928E-1,1.877054095E0,1.183244419E1
2.812295908E0,2.777273953E-1,1.857900500E0,1.170794582E1
2.814309215E0,2.370259613E-1,1.831564307E0,1.142064095E1
2.816322500E0,1.747767180E-1,1.821987510E0,1.105432892E1
2.818335766E0,1.532289088E-1,1.821987510E0,1.085560989E1
2.820349016E0,9.097966552E-2,1.843535304E0,1.046056652E1
2.822362251E0,2.394201607E-2,1.865083098E0,9.847650528E0
2.824375306E0,0.000000000E0,1.865083098E0,9.639355659E0
2.826388253E0,-1.436521020E-2,1.896207690E0,9.447818756E0
2.828401153E0,-1.675941236E-2,1.927332401E0,9.124602318E0
2.830416962E0,-3.351882473E-2,1.968033791E0,8.868422508E0
2.832429871E0,-3.830722719E-2,1.984793186E0,8.765471458E0
2.834442784E0,-5.267243832E-2,2.059013367E0,8.614637375E0
2.836455742E0,-7.182604820E-2,2.114080191E0,8.533234596E0
2.838468742E0,-7.422025502E-2,2.154781580E0,8.514080048E0
2.840481742E0,-9.576806426E-2,2.231395960E0,8.516474724E0
2.842494742E0,-1.005564705E-1,2.286462545E0,8.593089104E0
2.844507742E0,-9.576806426E-2,2.308010340E0,8.643367767E0
2.846520776E0,-6.224924326E-2,2.322375536E0,8.777442932E0
2.848533809E0,-4.548983276E-2,2.355894566E0,8.952219009E0
2.850546809E0,-2.154781483E-2,2.377442360E0,9.155726433E0
2.852559842E0,-9.576806799E-3,2.408566952E0,9.256282806E0
2.854572842E0,4.309562966E-2,2.427720547E0,9.478943825E0
2.856585875E0,4.548983276E-2,2.449268341E0,9.653720856E0
2.858598908E0,4.309562966E-2,2.439691544E0,9.723152161E0
2.860611974E0,3.112462163E-2,2.463633537E0,9.828496933E0
2.862625074E0,3.351882473E-2,2.477998734E0,9.885957718E0
2.864666540E0,4.548983276E-2,2.501940727E0,9.909899712E0
2.866708006E0,7.900865376E-2,2.549824715E0,9.905111313E0
2.868749539E0,9.816227108E-2,2.571372509E0,9.893140793E0
2.870791039E0,1.460463107E-1,2.616862535E0,9.857227325E0
2.872832539E0,1.867477298E-1,2.659958124E0,9.773430824E0
2.874874039E0,2.322375625E-1,2.679111719E0,9.682451248E0
2.876915572E0,2.633621991E-1,2.741360903E0,9.634567261E0
2.878957172E0,2.944868207E-1,2.817975283E0,9.550769806E0
2.880998805E0,3.160346150E-1,2.877830505E0,9.452607155E0
2.883040505E0,3.351882398E-1,2.940079689E0,9.359233856E0
2.885083171E0,3.543418646E-1,2.978386879E0,9.311349869E0
2.887126004E0,3.663128614E-1,3.016694069E0,9.215581894E0
2.889168937E0,3.687070608E-1,3.026270866E0,9.174880028E0
2.891209870E0,3.639186621E-1,3.074155092E0,9.143755913E0
2.893252836E0,3.303998411E-1,3.095702887E0,9.134179115E0
2.895295836E0,3.160346150E-1,3.086126089E0,9.143755913E0
2.897338802E0,2.777273953E-1,3.074155092E0,9.182063103E0
2.899381768E0,2.011129409E-1,3.074155092E0,9.229947090E0
2.901424734E0,1.268926859E-1,3.069366693E0,9.275436401E0
2.903467700E0,9.816227108E-2,3.066972494E0,9.282619476E0
2.905510666E0,2.873042040E-2,3.062183857E0,9.301773071E0
2.907553566E0,-3.351882473E-2,3.043030262E0,9.299378395E0
2.909596432E0,-5.746084079E-2,3.043030262E0,9.287407875E0
2.911646565E0,-1.053448766E-1,3.023876667E0,9.241917610E0
2.913696698E0,-1.101332754E-1,3.043030262E0,9.194033623E0
2.915746831E0,-1.125274822E-1,3.078943491E0,9.131784439E0
2.917796931E0,-1.029506698E-1,3.105279684E0,9.095871925E0
2.919847031E0,-7.182604820E-2,3.165134668E0,9.033622742E0
2.921897131E0,0.000000000E0,3.224989653E0,8.990526199E0
2.923947164E0,2.394201607E-2,3.253720045E0,8.983344078E0
2.925968897E0,6.703764945E-2,3.327940464E0,8.990526199E0
2.927990597E0,1.244984865E-1,3.416525841E0,8.992920876E0
2.930012263E0,1.436520964E-1,3.452438831E0,8.997709274E0
2.932033963E0,2.082955539E-1,3.509899616E0,9.000102997E0
2.934055696E0,2.585737705E-1,3.548206806E0,9.009679794E0
2.936077462E0,2.777273953E-1,3.562572241E0,9.016862869E0
2.938099195E0,3.615244627E-1,3.576937437E0,9.009679794E0
2.940120861E0,4.668693244E-1,3.615244627E0,9.002497673E0
2.942142494E0,5.841852427E-1,3.658340216E0,9.007286072E0
2.944164094E0,7.398083210E-1,3.708618402E0,9.033622742E0
2.946186827E0,8.164227605E-1,3.746925592E0,9.043199539E0
2.948207427E0,9.433154464E-1,3.816357613E0,9.076718330E0
2.950227927E0,1.007958889E0,3.847482204E0,9.081506729E0
2.952248393E0,1.127668977E0,3.943250179E0,9.105448723E0
2.954268859E0,1.197100878E0,4.031835556E0,9.153332710E0
2.956289259E0,1.209071875E0,4.053383350E0,9.174880028E0
2.958309659E0,1.237802267E0,4.122815132E0,9.232340813E0
2.960330025E0,1.240196466E0,4.180276394E0,9.304166794E0
2.962350358E0,1.230619669E0,4.185064793E0,9.335291862E0
2.964370691E0,1.189918280E0,4.163516521E0,9.385569572E0
2.966391057E0,1.103726983E0,4.127603531E0,9.431059837E0
2.968411423E0,9.983820915E-1,4.098873138E0,9.457395554E0
2.970431823E0,9.361328483E-1,4.039018154E0,9.455001831E0
2.972444889E0,8.188169599E-1,3.983951569E0,9.435848236E0
2.974457922E0,7.206547260E-1,3.921702385E0,9.385569572E0
2.976470922E0,6.607996821E-1,3.869029999E0,9.356839180E0
2.978483888E0,5.410895944E-1,3.799597979E0,9.308955193E0
2.980496821E0,4.596867263E-1,3.732560396E0,9.249100685E0
2.982509721E0,4.118026793E-1,3.715801001E0,9.213187218E0
2.984522721E0,3.160346150E-1,3.675099611E0,9.160514832E0
2.986535554E0,2.298433632E-1,3.658340216E0,9.093477249E0
2.988548354E0,1.915361285E-1,3.653551817E0,9.064746857E0
2.990561120E0,1.173158810E-1,3.670311213E0,9.002497673E0
2.992583086E0,6.703764945E-2,3.675099611E0,8.937853813E0
2.994605086E0,2.633621916E-2,3.677493811E0,8.861239433E0
2.996627019E0,9.576806799E-3,3.689464808E0,8.830115318E0
2.998648952E0,-1.197100803E-2,3.696647406E0,8.775048256E0
3.000670885E0,-1.915361360E-2,3.703830004E0,8.739135742E0
3.002692818E0,4.788403399E-3,3.711012602E0,8.717587471E0
3.004714718E0,2.394201700E-3,3.751713991E0,8.636184692E0
3.006734618E0,7.182605099E-3,3.773261786E0,8.605060577E0
3.008756518E0,1.197100803E-2,3.823540211E0,8.533234596E0
3.010778418E0,2.154781483E-2,3.842693806E0,8.482955933E0
3.012800284E0,3.830722719E-2,3.909731388E0,8.387187958E0
3.014822150E0,8.140286058E-2,3.931279182E0,8.260294914E0
3.016844016E0,1.077390760E-1,3.950432777E0,8.198045731E0
3.018865849E0,1.484405100E-1,4.005499363E0,8.107066154E0
3.020887682E0,1.915361285E-1,4.050989151E0,8.042423248E0
3.022909548E0,1.963245422E-1,4.086902142E0,8.020874977E0
3.024931414E0,2.130839527E-1,4.146757126E0,7.992144585E0
3.026981714E0,2.250549644E-1,4.189853191E0,7.958625793E0
3.029032047E0,2.274491638E-1,4.232948780E0,7.934683800E0
3.031082380E0,2.466027737E-1,4.266467571E0,7.893982410E0
3.033132746E0,2.633621991E-1,4.302380562E0,7.848492622E0
3.035183179E0,2.873041928E-1,4.321534157E0,7.814973831E0
3.037233612E0,3.088520169E-1,4.343081951E0,7.728782177E0
3.039284078E0,3.471592367E-1,4.381389141E0,7.644985199E0
3.041334578E0,3.639186621E-1,4.410119534E0,7.601889610E0
3.043385078E0,3.998316824E-1,4.450820923E0,7.518092632E0
3.045435511E0,4.237737060E-1,4.491522312E0,7.427113056E0
3.047486077E0,4.237737060E-1,4.520252705E0,7.391200066E0
3.049536677E0,4.429273009E-1,4.563348293E0,7.324162483E0
3.051587277E0,4.429273009E-1,4.596867085E0,7.276278019E0
3.053628610E0,4.309563041E-1,4.606443882E0,7.259518623E0
3.055669843E0,4.070142806E-1,4.620809078E0,7.218817234E0
3.057711109E0,3.734954596E-1,4.659116745E0,7.218817234E0
3.059752342E0,3.327940404E-1,4.687847137E0,7.211634636E0
3.061793575E0,3.136404157E-1,4.690241337E0,7.209240437E0
3.063834808E0,2.657563984E-1,4.721365929E0,7.190086842E0
3.065876074E0,2.059013397E-1,4.738125324E0,7.156568050E0
3.067917274E0,1.723825186E-1,4.750096321E0,7.127837658E0
3.069958474E0,9.816227108E-2,4.728548527E0,7.046434879E0
3.071999640E0,2.394201607E-2,4.704606533E0,6.977003098E0
3.074042040E0,-1.197100803E-2,4.690241337E0,6.936301708E0
3.076083240E0,-9.816227108E-2,4.654327869E0,6.842927933E0
3.078124440E0,-1.604115069E-1,4.625597477E0,6.756736279E0
3.080165673E0,-1.867477298E-1,4.623203278E0,6.713640690E0
3.082206906E0,-2.442085743E-1,4.611232281E0,6.629843712E0
3.084248139E0,-3.208230138E-1,4.623203278E0,6.581959724E0
3.086289405E0,-3.639186621E-1,4.630385876E0,6.548440933E0
3.088302205E0,-3.854664862E-1,4.625597477E0,6.531681538E0
3.090314971E0,-4.237737060E-1,4.627991676E0,6.507739544E0
3.092327737E0,-4.955997467E-1,4.659116745E0,6.502951145E0
3.094340537E0,-5.267243981E-1,4.668693542E0,6.495768547E0
3.096353270E0,-5.674257874E-1,4.656722069E0,6.464643955E0
3.098366036E0,-6.105214357E-1,4.654327869E0,6.414365768E0
3.100378736E0,-6.296750307E-1,4.651933670E0,6.378452778E0
3.102391469E0,-6.607996821E-1,4.644751072E0,6.313809395E0
3.104404235E0,-6.967126727E-1,4.647145271E0,6.280290127E0
3.106417001E0,-7.134721279E-1,4.647145271E0,6.261136532E0
3.109353001E0,-7.374141216E-1,4.680664539E0,6.196493149E0
3.111357315E0,-7.374141216E-1,4.707000732E0,6.151003361E0
3.113370315E0,-7.469909191E-1,4.740519524E0,6.131849766E0
3.115383315E0,-7.613561153E-1,4.829104900E0,6.095936775E0
3.117396315E0,-7.254431248E-1,4.939537525E0,6.050446987E0
3.119409648E0,-7.134721279E-1,4.987421513E0,6.024110794E0
3.121423148E0,-6.775590777E-1,5.073612690E0,5.959467411E0
3.123436948E0,-5.985504389E-1,5.188534260E0,5.873276234E0
3.125450948E0,-5.602431893E-1,5.236418247E0,5.825392246E0
3.127464948E0,-4.572925270E-1,5.346551895E0,5.664980412E0
3.129478698E0,-4.094084799E-1,5.377676487E0,5.602731228E0
3.131492364E0,-3.687070608E-1,5.408801079E0,5.468656063E0
3.133506064E0,-3.447650373E-1,5.463867664E0,5.411195278E0
3.135519700E0,-2.873041928E-1,5.518934250E0,5.315426826E0
3.137533283E0,-2.250549644E-1,5.597942829E0,5.234024048E0
3.139546975E0,-2.130839527E-1,5.636250019E0,5.195716858E0
3.141560617E0,-1.723825186E-1,5.715258598E0,5.147832870E0
3.143574350E0,-1.388636976E-1,5.755959988E0,5.099948883E0
3.145588100E0,-1.316810995E-1,5.782296181E0,5.078401089E0
3.147601864E0,-1.125274822E-1,5.834969044E0,5.040093899E0
3.149615475E0,-1.173158810E-1,5.873276234E0,5.037699699E0
3.151629001E0,-1.197100878E-1,5.887641430E0,5.044882298E0
3.153642501E0,-1.005564705E-1,5.945102215E0,5.056853294E0
3.155664215E0,-9.816227108E-2,5.976226807E0,5.085583687E0
3.157685578E0,-9.097966552E-2,5.983409405E0,5.116708279E0
3.159706621E0,-7.661445439E-2,5.992986202E0,5.143044472E0
3.161727371E0,-8.379705995E-2,6.009745598E0,5.195716858E0
3.163747851E0,-7.661445439E-2,6.009745598E0,5.243600845E0
3.165768081E0,-5.985504389E-2,6.014533997E0,5.260360241E0
3.167788081E0,-3.351882473E-2,6.038475990E0,5.301061630E0
3.169807866E0,-1.197100803E-2,6.095936775E0,5.344157696E0
3.171827452E0,-2.394201700E-3,6.105513573E0,5.365705490E0
3.173846885E0,-7.182605099E-3,6.131849766E0,5.432743073E0
3.175866318E0,2.394201607E-2,6.143820763E0,5.490203857E0
3.177885751E0,2.633621916E-2,6.177339554E0,5.526116848E0
3.179905151E0,3.112462163E-2,6.194098949E0,5.540482044E0
3.181924517E0,4.070143029E-2,6.215646744E0,5.566818237E0
3.183943817E0,4.548983276E-2,6.244377136E0,5.562029839E0
3.185963083E0,4.309562966E-2,6.251559734E0,5.559635639E0
3.187982349E0,4.548983276E-2,6.261136532E0,5.540482044E0
3.190003549E0,4.548983276E-2,6.263530731E0,5.538087845E0
3.192022815E0,3.112462163E-2,6.268319130E0,5.538087845E0
3.194042081E0,4.788403399E-3,6.275501728E0,5.521328449E0
3.196061381E0,-4.788403399E-3,6.253953934E0,5.514145851E0
3.198080681E0,-3.112462163E-2,6.241982937E0,5.494992256E0
3.200099981E0,-5.746084079E-2,6.241982937E0,5.480627060E0
3.202119281E0,-1.005564705E-1,6.230011940E0,5.437531471E0
3.204138581E0,-1.651999205E-1,6.191704750E0,5.384859085E0
3.206157881E0,-2.059013397E-1,6.179733753E0,5.363311291E0
3.208177147E0,-2.873041928E-1,6.148609161E0,5.341763496E0
3.210196480E0,-3.806780577E-1,6.110301971E0,5.315426826E0
3.212215846E0,-4.237737060E-1,6.103119373E0,5.296273232E0
3.214235212E0,-4.932055473E-1,6.083965778E0,5.269937038E0
3.216248812E0,-5.530605912E-1,6.081571579E0,5.243600845E0
3.218262412E0,-5.817909837E-1,6.088754177E0,5.229235649E0
3.220276012E0,-6.009446383E-1,6.117484570E0,5.202899456E0
3.222289612E0,-5.985504389E-1,6.141426563E0,5.174169064E0
3.224303212E0,-5.961562395E-1,6.158185959E0,5.164592266E0
3.226316812E0,-5.913678408E-1,6.186916351E0,5.140650272E0
3.228330378E0,-5.674257874E-1,6.215646744E0,5.104737282E0
3.230343844E0,-5.578489900E-1,6.244377136E0,5.064035892E0
3.232357244E0,-5.506663918E-1,6.273107529E0,5.047276497E0
3.234370577E0,-5.434837937E-1,6.316203594E0,5.028122902E0
3.236393143E0,-5.123591423E-1,6.337751389E0,5.008969307E0
3.238415776E0,-4.860229492E-1,6.359299183E0,5.011363506E0
3.240438409E0,-4.692635238E-1,6.373664379E0,4.992209911E0
3.242461109E0,-4.094084799E-1,6.421548367E0,4.965873718E0
3.244483842E0,-3.375824392E-1,6.479009151E0,4.965873718E0
3.246506542E0,-2.920926213E-1,6.502951145E0,4.953902721E0
3.248529242E0,-1.891419291E-1,6.627449512E0,4.949114323E0
3.250550042E0,-1.340752989E-1,6.682516098E0,4.949114323E0
3.252572808E0,-8.379705995E-2,6.735188484E0,4.946720123E0
3.254595574E0,3.591302410E-2,6.833351135E0,4.934749126E0
3.256618374E0,1.364694983E-1,6.941090107E0,4.913201332E0
3.258641207E0,2.322375625E-1,7.008127689E0,4.898836136E0
3.260664007E0,2.729389966E-1,7.106289864E0,4.886565685E0
3.262686840E0,3.471592367E-1,7.206846237E0,4.888959885E0
3.264709640E0,4.237737060E-1,7.297826290E0,4.891354084E0
3.266732406E0,4.644751251E-1,7.338527679E0,4.906018734E0
3.268755206E0,5.147533417E-1,7.412747860E0,4.941931725E0
3.270806472E0,5.506663918E-1,7.448660851E0,4.975450516E0
3.272857772E0,5.722141862E-1,7.467814445E0,5.016151905E0
3.274909105E0,5.817909837E-1,7.467814445E0,5.087977886E0
3.276960438E0,5.722141862E-1,7.458237648E0,5.123890877E0
3.279011738E0,5.434837937E-1,7.441478252E0,5.200505257E0
3.281063004E0,4.884171486E-1,7.424718857E0,5.298667431E0
3.283114237E0,4.429273009E-1,7.407959461E0,5.325003624E0
3.285165470E0,3.639186621E-1,7.372046471E0,5.384859085E0
3.287216736E0,3.016694188E-1,7.360075474E0,5.451896667E0
3.289268036E0,2.442085743E-1,7.348104477E0,5.487809658E0
3.291319402E0,2.011129409E-1,7.350498676E0,5.497386456E0
3.293370802E0,1.604115069E-1,7.345710278E0,5.528511047E0
3.295422235E0,1.412578970E-1,7.338527679E0,5.535693645E0
3.297464501E0,1.149216816E-1,7.338527679E0,5.528511047E0
3.299506701E0,8.619125932E-2,7.343316078E0,5.516540051E0
3.301548901E0,9.097966552E-2,7.345710278E0,5.478232861E0
3.303591034E0,8.858546615E-2,7.343316078E0,5.454290867E0
3.305633100E0,6.703764945E-2,7.364863873E0,5.423166275E0
3.307675166E0,6.464344263E-2,7.398382664E0,5.396830082E0
3.309717199E0,4.548983276E-2,7.412747860E0,5.334580898E0
3.311759165E0,4.070143029E-2,7.419930458E0,5.305850029E0
3.313801065E0,3.112462163E-2,7.424718857E0,5.250783443E0
3.315842898E0,3.591302410E-2,7.448660851E0,5.162198067E0
3.317886464E0,4.070143029E-2,7.460631847E0,5.119102478E0
3.319928097E0,2.873042040E-2,7.486968040E0,5.044882298E0
3.321969730E0,2.154781483E-2,7.513304234E0,4.968267918E0
3.324011363E0,1.675941236E-2,7.513304234E0,4.937143326E0
3.326052963E0,1.675941236E-2,7.549217224E0,4.879383087E0
3.328094563E0,1.197100803E-2,7.568370819E0,4.848258495E0
3.330136129E0,1.436521020E-2,7.565976620E0,4.841075897E0
3.332149195E0,-1.197100803E-2,7.558794022E0,4.817133904E0
3.334162228E0,-3.112462163E-2,7.539640427E0,4.805162907E0
3.336175228E0,-3.112462163E-2,7.537246227E0,4.809951305E0
3.338188194E0,-4.309562966E-2,7.549217224E0,4.819528103E0
3.340201127E0,-3.591302410E-2,7.573159218E0,4.853046894E0
3.342214093E0,-2.873042040E-2,7.587524414E0,4.906018734E0
3.344227026E0,-2.633621916E-2,7.587524414E0,4.937143326E0
3.346239926E0,-1.436521020E-2,7.606678009E0,4.977844715E0
3.348252826E0,-4.788403399E-3,7.635408401E0,5.013757706E0
3.350265692E0,2.394201700E-3,7.656956196E0,5.025728703E0
3.352307092E0,4.548983276E-2,7.695263386E0,5.085583687E0
3.354348492E0,6.464344263E-2,7.700051785E0,5.102343082E0
3.356389825E0,1.125274822E-1,7.733570576E0,5.145438671E0
3.358431091E0,1.795651317E-1,7.776666164E0,5.193322659E0
3.360472357E0,2.202665508E-1,7.803002834E0,5.231629848E0
3.362513590E0,2.729389966E-1,7.867646217E0,5.286696434E0
3.364554790E0,3.495534360E-1,7.903559208E0,5.313032627E0
3.366596023E0,3.902548850E-1,7.927501202E0,5.325003624E0
3.368637223E0,4.141969085E-1,7.975385189E0,5.325003624E0
3.370678389E0,4.572925270E-1,8.013691902E0,5.344157696E0
3.372720555E0,4.740519226E-1,8.035240173E0,5.346551895E0
3.374762821E0,4.908113480E-1,8.052000046E0,5.356128693E0
3.376805054E0,5.195417404E-1,8.066365242E0,5.401618481E0
3.378845554E0,5.195417404E-1,8.075942039E0,5.427954674E0
3.380887954E0,5.195417404E-1,8.063970566E0,5.444714069E0
3.382930320E0,5.003881454E-1,8.037634850E0,5.468656063E0
3.384972686E0,4.213795066E-1,7.989750385E0,5.466261864E0
3.387015052E0,3.878606856E-1,7.958625793E0,5.468656063E0
3.389057452E0,3.184288144E-1,7.898770809E0,5.480627060E0
3.391099885E0,2.585737705E-1,7.853281021E0,5.497386456E0
3.393142285E0,1.412578970E-1,7.829339027E0,5.502174854E0
3.395184685E0,9.337386489E-2,7.800608635E0,5.502174854E0
3.397227051E0,1.675941236E-2,7.733570576E0,5.526116848E0
3.399272417E0,-6.943184882E-2,7.680898190E0,5.533299446E0
3.401317850E0,-1.221042871E-1,7.659350395E0,5.530905247E0
3.403363283E0,-1.939303428E-1,7.621043205E0,5.518934250E0
3.405408749E0,-2.825157940E-1,7.582736015E0,5.490203857E0
3.407454215E0,-3.112462163E-1,7.573159218E0,5.468656063E0
3.409499615E0,-3.567360640E-1,7.527669430E0,5.454290867E0
3.411545015E0,-4.141969085E-1,7.496544838E0,5.437531471E0
3.413561915E0,-4.716577232E-1,7.477391243E0,5.449502468E0
3.415578848E0,-4.979939461E-1,7.443872452E0,5.454290867E0
3.417595848E0,-5.315127969E-1,7.429507256E0,5.456685066E0
3.419612848E0,-5.602431893E-1,7.395988464E0,5.425560474E0
3.421629914E0,-5.650315881E-1,7.398382664E0,5.401618481E0
3.423647014E0,-5.770025849E-1,7.417536259E0,5.332186222E0
3.425664180E0,-5.865794420E-1,7.446266651E0,5.277119637E0
3.427681346E0,-5.865794420E-1,7.458237648E0,5.262754440E0
3.429698546E0,-5.817909837E-1,7.498939037E0,5.210082054E0
3.431715779E0,-5.865794420E-1,7.520486832E0,5.145438671E0
3.433734079E0,-5.841852427E-1,7.537246227E0,5.119102478E0
3.435750245E0,-5.722141862E-1,7.546823025E0,5.066430092E0
3.437766445E0,-5.674257874E-1,7.558794022E0,5.004180908E0
3.439782545E0,-5.267243981E-1,7.563582420E0,4.989815712E0
3.441798711E0,-5.051765442E-1,7.582736015E0,4.946720123E0
3.443814877E0,-4.668693244E-1,7.616254807E0,4.937143326E0
3.445831010E0,-4.165911078E-1,7.649773598E0,4.951508522E0
3.447847176E0,-3.902548850E-1,7.664138794E0,4.961085320E0
3.449863309E0,-3.399766386E-1,7.680898190E0,4.980238914E0
3.451879475E0,-2.729389966E-1,7.704840183E0,5.020940304E0
3.453895708E0,-2.370259613E-1,7.716811180E0,5.025728703E0
3.455911908E0,-1.795651317E-1,7.747935772E0,5.037699699E0
3.457928074E0,-1.221042871E-1,7.800608635E0,5.073612690E0
3.459941274E0,-9.337386489E-2,7.824550629E0,5.083189487E0
3.461954407E0,-1.675941236E-2,7.829339027E0,5.083189487E0
3.463967473E0,4.788403213E-2,7.853281021E0,5.095160484E0
3.465980506E0,7.422025502E-2,7.865252018E0,5.095160484E0
3.467993506E0,1.197100878E-1,7.882011414E0,5.076006889E0
3.470006506E0,1.699883193E-1,7.937077999E0,5.078401089E0
3.472019506E0,2.011129409E-1,7.963414192E0,5.083189487E0
3.474032406E0,2.202665508E-1,8.001721382E0,5.083189487E0
3.476045239E0,2.609679997E-1,8.063970566E0,5.080795288E0
3.478057972E0,2.896983922E-1,8.116642952E0,5.080795288E0
3.480080338E0,3.016694188E-1,8.126219749E0,5.087977886E0
3.482102671E0,3.088520169E-1,8.119037628E0,5.090372086E0
3.484124937E0,3.088520169E-1,8.107066154E0,5.123890877E0
3.486147203E0,2.968810201E-1,8.107066154E0,5.157409668E0
3.488169503E0,2.729389966E-1,8.092700958E0,5.181351662E0
3.490191803E0,2.442085743E-1,8.040028572E0,5.245995045E0
3.492214136E0,2.226607651E-1,8.016086578E0,5.289090633E0
3.494234469E0,1.963245422E-1,7.999327183E0,5.320215225E0
3.496256869E0,1.723825186E-1,7.975385189E0,5.396830082E0
3.498279335E0,1.173158810E-1,7.934683800E0,5.463867664E0
3.500301801E0,9.816227108E-2,7.910741806E0,5.494992256E0
3.502324201E0,2.873042040E-2,7.889194012E0,5.571606636E0
3.504346567E0,-4.548983276E-2,7.865252018E0,5.626673222E0
3.506368933E0,-9.097966552E-2,7.819762230E0,5.667374611E0
3.508391266E0,-1.221042871E-1,7.805397034E0,5.686528206E0
3.510413632E0,-1.675941199E-1,7.750329971E0,5.715258598E0
3.512435932E0,-2.178723514E-1,7.707234383E0,5.705681801E0
3.514487698E0,-2.705447972E-1,7.668927193E0,5.691316605E0
3.516539564E0,-2.992752194E-1,7.637802601E0,5.684134007E0
3.518591464E0,-3.136404157E-1,7.609072208E0,5.676951408E0
3.520643397E0,-3.519476354E-1,7.575553417E0,5.696105003E0
3.522695363E0,-3.950432837E-1,7.542034626E0,5.710470200E0
3.524747329E0,-4.118026793E-1,7.522881031E0,5.708076000E0
3.526799295E0,-4.309563041E-1,7.494150639E0,5.676951408E0
3.528851295E0,-4.525041282E-1,7.491756439E0,5.645826817E0
3.530903295E0,-4.572925270E-1,7.503727436E0,5.617096424E0
3.532955328E0,-4.620809257E-1,7.510910034E0,5.602731228E0
3.535007394E0,-4.572925270E-1,7.546823025E0,5.574000835E0
3.537059494E0,-4.118026793E-1,7.594707012E0,5.538087845E0
3.539111660E0,-3.830722570E-1,7.618649006E0,5.518934250E0
3.541154193E0,-3.232172430E-1,7.676109791E0,5.490203857E0
3.543196693E0,-2.442085743E-1,7.728782177E0,5.478232861E0
3.545239293E0,-1.963245422E-1,7.755118370E0,5.483021259E0
3.547281859E0,-1.125274822E-1,7.805397034E0,5.468656063E0
3.549324425E0,-5.267243832E-2,7.872434616E0,5.471050262E0
3.551367025E0,-1.915361360E-2,7.898770809E0,5.483021259E0
3.553409625E0,5.267243832E-2,7.958625793E0,5.487809658E0
3.555452158E0,6.943184882E-2,7.958625793E0,5.473444462E0
3.557494658E0,1.005564705E-1,7.977779388E0,5.432743073E0
3.559537091E0,1.077390760E-1,7.994538784E0,5.411195278E0
3.561580691E0,1.556231081E-1,8.020874977E0,5.360917091E0
3.563623091E0,1.651999205E-1,8.037634850E0,5.315426826E0
3.565665524E0,1.675941199E-1,8.042423248E0,5.289090633E0
3.567707957E0,1.675941199E-1,8.073547363E0,5.226841450E0
3.569750357E0,1.628057212E-1,8.090307236E0,5.135861874E0
3.571792723E0,1.628057212E-1,8.083124161E0,5.095160484E0
3.573835023E0,1.628057212E-1,8.090307236E0,5.013757706E0
3.575847823E0,1.819593310E-1,8.107066154E0,4.932354927E0
3.577860523E0,1.939303428E-1,8.121431351E0,4.903624535E0
3.579873256E0,2.082955539E-1,8.135796547E0,4.855441093E0
3.581885956E0,2.059013397E-1,8.131008148E0,4.824316502E0
3.583898656E0,2.035071403E-1,8.123826027E0,4.841075897E0
3.585911356E0,2.035071403E-1,8.119037628E0,4.865017891E0
3.587924056E0,2.106897533E-1,8.109460831E0,4.934749126E0
3.589936722E0,1.939303428E-1,8.102277756E0,5.011363506E0
3.591949388E0,1.843535304E-1,8.090307236E0,5.047276497E0
3.593962021E0,1.604115069E-1,8.035240173E0,5.123890877E0
3.596903021E0,1.412578970E-1,8.025663376E0,5.217264652E0
3.598889315E0,1.077390760E-1,7.992144585E0,5.305850029E0
3.600902315E0,1.173158810E-1,7.958625793E0,5.370493889E0
3.602914315E0,8.379705995E-2,7.934683800E0,5.420772076E0
3.604927315E0,6.703764945E-2,7.922712803E0,5.451896667E0
3.606939981E0,4.070143029E-2,7.893982410E0,5.521328449E0
3.608952481E0,1.915361360E-2,7.862857819E0,5.559635639E0
3.610965081E0,1.436521020E-2,7.843704224E0,5.578789234E0
3.612977747E0,-2.394201700E-3,7.826944828E0,5.609913826E0
3.614990175E0,-1.915361360E-2,7.817368031E0,5.643432617E0
3.617002675E0,-1.915361360E-2,7.803002834E0,5.657797813E0
3.619015341E0,-5.267243832E-2,7.786243439E0,5.674557209E0
3.621027941E0,-4.309562966E-2,7.776666164E0,5.679345608E0
3.623040577E0,-4.788403213E-2,7.774271965E0,5.674557209E0
3.625053243E0,-7.182604820E-2,7.769483566E0,5.657797813E0
3.627065858E0,-7.900865376E-2,7.759906769E0,5.629067421E0
3.629078429E0,-7.661445439E-2,7.762300968E0,5.619490623E0
3.631090962E0,-8.619125932E-2,7.771877766E0,5.595548630E0
3.633103462E0,-1.005564705E-1,7.779060364E0,5.554847240E0
3.635115991E0,-1.221042871E-1,7.743147373E0,5.523722649E0
3.637128379E0,-1.460463107E-1,7.731176376E0,5.509357452E0
3.639140694E0,-1.915361285E-1,7.750329971E0,5.487809658E0
3.641152944E0,-1.843535304E-1,7.774271965E0,5.449502468E0
3.643173848E0,-1.963245422E-1,7.764695168E0,5.437531471E0
3.645194348E0,-2.082955539E-1,7.786243439E0,5.406406879E0
3.647214478E0,-1.939303428E-1,7.795820236E0,5.377676487E0
3.649234311E0,-1.771709323E-1,7.826944828E0,5.370493889E0
3.651253831E0,-1.723825186E-1,7.834127426E0,5.370493889E0
3.653273100E0,-1.412578970E-1,7.877223015E0,5.356128693E0
3.655292100E0,-1.077390760E-1,7.917924404E0,5.365705490E0
3.657310814E0,-1.053448766E-1,7.927501202E0,5.372888088E0
3.659329365E0,-5.027823523E-2,7.946654797E0,5.384859085E0
3.661347731E0,-2.633621916E-2,7.984961987E0,5.368099689E0
3.663366131E0,-1.436521020E-2,7.996932983E0,5.370493889E0
3.665384497E0,2.154781483E-2,8.023268700E0,5.363311291E0
3.667402897E0,5.506663769E-2,8.063970566E0,5.353734493E0
3.669421297E0,6.703764945E-2,8.087912560E0,5.339369297E0
3.671439663E0,8.858546615E-2,8.116642952E0,5.329792023E0
3.673457996E0,1.077390760E-1,8.147768021E0,5.310638428E0
3.675476396E0,1.316810995E-1,8.166921616E0,5.274725437E0
3.677496796E0,1.484405100E-1,8.171710014E0,5.253177643E0
3.679515062E0,1.651999205E-1,8.195652008E0,5.224447250E0
3.681533328E0,1.939303428E-1,8.236352921E0,5.205293655E0
3.683551561E0,1.867477298E-1,8.238747597E0,5.183745861E0
3.685569761E0,2.154781520E-1,8.245929718E0,5.147832870E0
3.687587961E0,2.130839527E-1,8.245929718E0,5.147832870E0
3.689606161E0,2.154781520E-1,8.248324394E0,5.150227070E0
3.691624361E0,2.154781520E-1,8.245929718E0,5.162198067E0
3.693642594E0,2.226607651E-1,8.255506516E0,5.176563263E0
3.695660827E0,2.130839527E-1,8.260294914E0,5.174169064E0
3.697679127E0,2.346317619E-1,8.267477989E0,5.157409668E0
3.699697460E0,2.466027737E-1,8.250718117E0,5.140650272E0
3.701715860E0,2.274491638E-1,8.248324394E0,5.121496677E0
3.703728226E0,2.250549644E-1,8.260294914E0,5.116708279E0
3.705740626E0,2.298433632E-1,8.253112793E0,5.109525681E0
3.707753026E0,2.202665508E-1,8.219594002E0,5.116708279E0
3.709765359E0,2.202665508E-1,8.217199326E0,5.123890877E0
3.711777692E0,2.059013397E-1,8.236352921E0,5.150227070E0
3.713789992E0,1.843535304E-1,8.224382401E0,5.183745861E0
3.715802325E0,1.843535304E-1,8.226776123E0,5.207687855E0
3.717814625E0,1.843535304E-1,8.236352921E0,5.234024048E0
3.719826825E0,1.795651317E-1,8.236352921E0,5.257966042E0
3.721838958E0,1.628057212E-1,8.233959198E0,5.262754440E0
3.723857124E0,1.651999205E-1,8.210017204E0,5.272331238E0
3.725875257E0,1.508347094E-1,8.190863609E0,5.279513836E0
3.727893357E0,1.508347094E-1,8.183680534E0,5.291484833E0
3.729911457E0,1.436520964E-1,8.162133217E0,5.291484833E0
3.731929557E0,1.316810995E-1,8.128614426E0,5.322609425E0
3.733947657E0,1.268926859E-1,8.111854553E0,5.346551895E0
3.735965757E0,1.316810995E-1,8.138191223E0,5.365705490E0
3.737981823E0,1.316810995E-1,8.131008148E0,5.382464886E0
3.740000023E0,9.576806426E-2,8.119037628E0,5.394435883E0
3.742018256E0,8.619125932E-2,8.111854553E0,5.401618481E0
3.744036522E0,6.703764945E-2,8.075942039E0,5.406406879E0
3.746054822E0,5.746084079E-2,8.054393768E0,5.401618481E0
3.748073155E0,2.873042040E-2,8.037634850E0,5.401618481E0
3.750091521E0,1.197100803E-2,8.030451775E0,5.394435883E0
3.752109921E0,-2.154781483E-2,8.016086578E0,5.399224281E0
3.754128287E0,-3.112462163E-2,7.999327183E0,5.392041683E0
3.756146687E0,-4.548983276E-2,7.977779388E0,5.394435883E0
3.759089687E0,-9.337386489E-2,7.946654797E0,5.413589478E0
3.761171315E0,-1.053448766E-1,7.941866398E0,5.406406879E0
3.763183315E0,-1.340752989E-1,7.915530205E0,5.394435883E0
3.765195315E0,-1.604115069E-1,7.891588211E0,5.394435883E0
3.767208315E0,-1.819593310E-1,7.872434616E0,5.418377876E0
3.769220981E0,-1.915361285E-1,7.867646217E0,5.423166275E0
3.771233731E0,-1.915361285E-1,7.843704224E0,5.408801079E0
3.773246331E0,-1.867477298E-1,7.862857819E0,5.399224281E0
3.775258831E0,-1.699883193E-1,7.877223015E0,5.406406879E0
3.777271259E0,-1.460463107E-1,7.898770809E0,5.456685066E0
3.779283759E0,-1.149216816E-1,7.915530205E0,5.475838661E0
3.781296314E0,-8.140286058E-2,7.922712803E0,5.487809658E0
3.783308914E0,-5.027823523E-2,7.941866398E0,5.509357452E0
3.785321459E0,-9.576806799E-3,7.951443195E0,5.514145851E0
3.787334042E0,7.182605099E-3,7.965808392E0,5.528511047E0
3.789346657E0,2.394201700E-3,7.994538784E0,5.562029839E0
3.791359371E0,1.915361360E-2,7.999327183E0,5.588366032E0
3.793372104E0,1.675941236E-2,7.987356186E0,5.617096424E0
3.795384854E0,2.154781483E-2,7.987356186E0,5.633855820E0
3.797397559E0,1.675941236E-2,7.965808392E0,5.679345608E0
3.799410170E0,1.436521020E-2,7.965808392E0,5.698499203E0
3.801422801E0,1.197100803E-2,7.968202591E0,5.717652798E0
3.803435401E0,2.394201700E-3,7.987356186E0,5.746383190E0
3.805449734E0,-2.394201607E-2,7.972990990E0,5.770325184E0
3.807462324E0,-5.027823523E-2,7.972990990E0,5.775113583E0
3.809474889E0,-6.703764945E-2,7.968202591E0,5.775113583E0
3.811487514E0,-8.379705995E-2,7.977779388E0,5.755959988E0
3.813500154E0,-8.140286058E-2,7.977779388E0,5.751171589E0
3.815512807E0,-7.900865376E-2,7.982567787E0,5.724835396E0
3.817525473E0,-7.900865376E-2,7.984961987E0,5.686528206E0
3.819538151E0,-7.661445439E-2,7.987356186E0,5.664980412E0
3.821550840E0,-7.661445439E-2,7.992144585E0,5.650615215E0
3.823563540E0,-7.661445439E-2,8.001721382E0,5.621884823E0
3.825576273E0,-6.703764945E-2,7.992144585E0,5.600337029E0
3.827588939E0,-6.464344263E-2,7.999327183E0,5.585971832E0
3.829601605E0,-5.267243832E-2,7.996932983E0,5.545270443E0
3.831614238E0,-5.267243832E-2,8.023268700E0,5.509357452E0
3.833626904E0,-5.746084079E-2,8.037634850E0,5.490203857E0
3.835639637E0,-7.422025502E-2,8.028057098E0,5.456685066E0
3.837652370E0,-8.140286058E-2,8.035240173E0,5.423166275E0
3.839693636E0,-1.125274822E-1,8.023268700E0,5.399224281E0
3.841734902E0,-1.268926859E-1,8.025663376E0,5.365705490E0
3.843776135E0,-1.604115069E-1,8.020874977E0,5.341763496E0
3.845817401E0,-1.580173075E-1,8.016086578E0,5.329792023E0
3.847858634E0,-1.388636976E-1,8.013691902E0,5.303455830E0
3.849899867E0,-1.173158810E-1,8.020874977E0,5.289090633E0
3.851941067E0,-1.125274822E-1,8.020874977E0,5.289090633E0
3.853982267E0,-1.197100878E-1,8.047211647E0,5.284302235E0
3.856023467E0,-8.619125932E-2,8.078335762E0,5.289090633E0
3.858064733E0,-8.619125932E-2,8.066365242E0,5.301061630E0
3.860106066E0,-9.097966552E-2,8.068758965E0,5.310638428E0
3.862147399E0,-8.140286058E-2,8.097489357E0,5.320215225E0
3.864188765E0,-8.140286058E-2,8.090307236E0,5.336975098E0
3.866228931E0,-5.985504389E-2,8.095095634E0,5.363311291E0
3.868270331E0,-4.788403213E-2,8.097489357E0,5.399224281E0
3.870311764E0,-1.915361360E-2,8.104672432E0,5.413589478E0
3.872353130E0,-9.576806799E-3,8.073547363E0,5.430348873E0
3.874394463E0,-2.394201700E-3,8.061576843E0,5.435137272E0
3.876435796E0,9.576806799E-3,8.066365242E0,5.456685066E0
3.878477096E0,7.182605099E-3,8.073547363E0,5.466261864E0
3.880518329E0,2.394201700E-3,8.099884033E0,5.490203857E0
3.882559495E0,1.675941236E-2,8.107066154E0,5.504569054E0
3.884600595E0,2.394201607E-2,8.121431351E0,5.514145851E0
3.886644661E0,3.830722719E-2,8.119037628E0,5.526116848E0
3.888688727E0,6.224924326E-2,8.133402824E0,5.523722649E0
3.890732827E0,7.422025502E-2,8.138191223E0,5.521328449E0
3.892776927E0,8.858546615E-2,8.138191223E0,5.530905247E0
3.894820993E0,8.140286058E-2,8.145373344E0,5.552453041E0
3.896864993E0,4.309562966E-2,8.150161743E0,5.574000835E0
3.898909026E0,3.591302410E-2,8.142979622E0,5.590760231E0
3.900924526E0,2.873042040E-2,8.157344818E0,5.614702225E0
3.902939992E0,2.154781483E-2,8.135796547E0,5.633855820E0
3.904955492E0,4.788403399E-3,8.138191223E0,5.645826817E0
3.906970958E0,-2.873042040E-2,8.138191223E0,5.693710804E0
3.908986491E0,-3.830722719E-2,8.126219749E0,5.705681801E0
3.911002057E0,-4.788403213E-2,8.123826027E0,5.717652798E0
3.913017623E0,-7.182604820E-2,8.126219749E0,5.734412193E0
3.915033123E0,-4.548983276E-2,8.119037628E0,5.720046997E0
3.917048623E0,-3.591302410E-2,8.119037628E0,5.712864399E0
3.919064089E0,-1.436521020E-2,8.138191223E0,5.669768810E0
3.921081589E0,-4.788403399E-3,8.147768021E0,5.660192013E0
3.923096955E0,2.154781483E-2,8.154950142E0,5.660192013E0
3.925112288E0,2.394201607E-2,8.186075211E0,5.667374611E0
3.927127588E0,4.788403213E-2,8.202834129E0,5.667374611E0
3.929142854E0,8.379705995E-2,8.257901192E0,5.636250019E0
3.931158120E0,9.576806426E-2,8.291419983E0,5.629067421E0
3.933173420E0,1.005564705E-1,8.298602104E0,5.609913826E0
3.935188720E0,1.101332754E-1,8.310573578E0,5.590760231E0
3.937204020E0,1.149216816E-1,8.329727173E0,5.581183434E0
3.939219353E0,1.460463107E-1,8.341697693E0,5.566818237E0
3.941234719E0,1.556231081E-1,8.327332497E0,5.542876244E0
3.943250152E0,1.675941199E-1,8.329727173E0,5.540482044E0
3.945265652E0,1.795651317E-1,8.339303970E0,5.542876244E0
3.947278185E0,1.795651317E-1,8.346486092E0,5.542876244E0
3.949290751E0,1.843535304E-1,8.332120895E0,5.566818237E0
3.951303284E0,1.819593310E-1,8.324938774E0,5.578789234E0
3.953315850E0,1.915361285E-1,8.324938774E0,5.614702225E0
3.955328450E0,1.747767180E-1,8.332120895E0,5.645826817E0
3.957341116E0,1.580173075E-1,8.332120895E0,5.662586212E0
3.959353782E0,1.508347094E-1,8.322544098E0,5.688922405E0
3.961366348E0,1.316810995E-1,8.300996780E0,5.698499203E0
3.963378881E0,1.292868853E-1,8.281843185E0,5.703287601E0
3.965391347E0,9.816227108E-2,8.286631584E0,5.715258598E0
3.967413280E0,9.337386489E-2,8.267477989E0,5.715258598E0
3.969435213E0,9.816227108E-2,8.236352921E0,5.708076000E0
3.971457113E0,8.619125932E-2,8.231564522E0,5.712864399E0
3.973479013E0,8.379705995E-2,8.212410927E0,5.684134007E0
3.975500946E0,5.746084079E-2,8.207622528E0,5.660192013E0
3.977522912E0,3.830722719E-2,8.212410927E0,5.648221016E0
3.979544878E0,3.830722719E-2,8.188468933E0,5.619490623E0
3.981564778E0,3.591302410E-2,8.190863609E0,5.593154430E0
3.983586811E0,1.197100803E-2,8.210017204E0,5.574000835E0
3.985608877E0,-7.182605099E-3,8.231564522E0,5.554847240E0
3.987630977E0,-1.915361360E-2,8.238747597E0,5.528511047E0
3.989653110E0,-2.394201607E-2,8.255506516E0,5.509357452E0
3.991675243E0,-3.351882473E-2,8.262689590E0,5.506963253E0
3.993697343E0,-6.224924326E-2,8.262689590E0,5.506963253E0
3.995719476E0,-9.097966552E-2,8.265083313E0,5.518934250E0
3.997741576E0,-1.005564705E-1,8.253112793E0,5.530905247E0
3.999763676E0,-7.422025502E-2,8.238747597E0,5.557241440E0
4.001814342E0,-7.422025502E-2,8.233959198E0,5.574000835E0
4.003865008E0,-9.337386489E-2,8.212410927E0,5.605125427E0
4.005915674E0,-1.197100878E-1,8.200440407E0,5.626673222E0
4.007966340E0,-1.244984865E-1,8.188468933E0,5.643432617E0
4.010017006E0,-1.292868853E-1,8.169315338E0,5.655403614E0
4.012067672E0,-1.484405100E-1,8.157344818E0,5.674557209E0
4.014118372E0,-1.364694983E-1,8.150161743E0,5.696105003E0
4.016169072E0,-1.316810995E-1,8.150161743E0,5.705681801E0
4.018219672E0,-1.316810995E-1,8.176498413E0,5.715258598E0
4.020270305E0,-1.244984865E-1,8.181286812E0,5.727229595E0
4.022321005E0,-1.268926859E-1,8.186075211E0,5.732017994E0
4.024371771E0,-1.149216816E-1,8.190863609E0,5.741594791E0
4.026422537E0,-1.053448766E-1,8.178892136E0,5.763142586E0
4.028463870E0,-9.097966552E-2,8.183680534E0,5.765536785E0
4.030505136E0,-8.619125932E-2,8.188468933E0,5.784690380E0
4.032546369E0,-6.703764945E-2,8.178892136E0,5.815814972E0
4.034587569E0,-7.661445439E-2,8.186075211E0,5.818209171E0
4.036628802E0,-7.661445439E-2,8.181286812E0,5.803843975E0
4.038669968E0,-7.422025502E-2,8.159738541E0,5.813420773E0
4.040711134E0,-8.140286058E-2,8.166921616E0,5.796661377E0
4.042752200E0,-7.422025502E-2,8.166921616E0,5.787084579E0
4.044793200E0,-3.112462163E-2,8.193257332E0,5.760748386E0
4.046834133E0,-7.182605099E-3,8.212410927E0,5.775113583E0
4.048876699E0,2.394201700E-3,8.221987724E0,5.775113583E0
4.050917599E0,1.915361360E-2,8.267477989E0,5.765536785E0
4.052958499E0,3.351882473E-2,8.298602104E0,5.748777390E0
4.054999399E0,5.506663769E-2,8.303390503E0,5.751171589E0
4.057040265E0,6.703764945E-2,8.341697693E0,5.763142586E0
4.059081165E0,7.900865376E-2,8.360851288E0,5.782296181E0
4.061122031E0,8.140286058E-2,8.368034363E0,5.787084579E0
4.063134297E0,8.140286058E-2,8.360851288E0,5.787084579E0
4.065146497E0,8.140286058E-2,8.377611160E0,5.772719383E0
4.067158697E0,6.224924326E-2,8.360851288E0,5.772719383E0
4.069170863E0,5.985504389E-2,8.348880768E0,5.763142586E0
4.071183063E0,5.267243832E-2,8.332120895E0,5.746383190E0
4.073195263E0,1.915361360E-2,8.315361977E0,5.705681801E0
4.075207396E0,1.915361360E-2,8.296208382E0,5.691316605E0
4.077219496E0,4.070143029E-2,8.324938774E0,5.657797813E0
4.079231662E0,5.506663769E-2,8.322544098E0,5.641038418E0
4.081243762E0,6.464344263E-2,8.341697693E0,5.629067421E0
4.084182762E0,7.182604820E-2,8.351274490E0,5.566818237E0
4.086189315E0,7.900865376E-2,8.353669167E0,5.547664642E0
4.088200315E0,8.379705995E-2,8.372822762E0,5.540482044E0
4.090212315E0,1.005564705E-1,8.389581680E0,5.511751652E0
4.092225315E0,9.097966552E-2,8.391976357E0,5.494992256E0
4.094237981E0,8.379705995E-2,8.401553154E0,5.490203857E0
4.096250481E0,9.576806426E-2,8.408735275E0,5.471050262E0
4.098263081E0,1.029506698E-1,8.420706749E0,5.473444462E0
4.100275581E0,1.101332754E-1,8.423100471E0,5.466261864E0
4.102288152E0,1.412578970E-1,8.411129951E0,5.497386456E0
4.104300777E0,1.508347094E-1,8.394370079E0,5.504569054E0
4.106313443E0,1.675941199E-1,8.411129951E0,5.509357452E0
4.108326143E0,1.891419291E-1,8.439860344E0,5.521328449E0
4.110338779E0,2.130839527E-1,8.442254066E0,5.545270443E0
4.112351529E0,1.963245422E-1,8.447042465E0,5.578789234E0
4.114364221E0,1.867477298E-1,8.461407661E0,5.585971832E0
4.116376935E0,1.819593310E-1,8.444648743E0,5.595548630E0
4.118389735E0,1.651999205E-1,8.403946877E0,5.621884823E0
4.120402547E0,1.436520964E-1,8.384793282E0,5.641038418E0
4.122415370E0,1.197100878E-1,8.346486092E0,5.662586212E0
4.124428036E0,7.900865376E-2,8.339303970E0,5.688922405E0
4.126440614E0,6.703764945E-2,8.317755699E0,5.700893402E0
4.128453064E0,3.830722719E-2,8.269871712E0,5.746383190E0
4.130469778E0,1.915361360E-2,8.238747597E0,5.770325184E0
4.132486368E0,1.436521020E-2,8.231564522E0,5.799055576E0
4.134502802E0,0.000000000E0,8.195652008E0,5.849334240E0
4.136519052E0,-2.633621916E-2,8.188468933E0,5.880458832E0
4.138535132E0,-6.224924326E-2,8.181286812E0,5.890035629E0
4.140551055E0,-8.140286058E-2,8.181286812E0,5.902006626E0
4.142566832E0,-8.379705995E-2,8.169315338E0,5.911583424E0
4.144582510E0,-8.619125932E-2,8.183680534E0,5.878064632E0
4.146598061E0,-7.900865376E-2,8.183680534E0,5.880458832E0
4.148613494E0,-7.900865376E-2,8.164526939E0,5.866093636E0
4.150628927E0,-5.506663769E-2,8.138191223E0,5.830180645E0
4.152644327E0,-4.070143029E-2,8.131008148E0,5.822998047E0
4.154659727E0,-5.267243832E-2,8.107066154E0,5.775113583E0
4.156675127E0,-7.182604820E-2,8.107066154E0,5.669768810E0
4.158690493E0,-5.985504389E-2,8.123826027E0,5.633855820E0
4.160705893E0,-3.591302410E-2,8.154950142E0,5.597942829E0
4.162721293E0,-2.154781483E-2,8.210017204E0,5.588366032E0
4.164738659E0,1.436521020E-2,8.248324394E0,5.559635639E0
4.166753992E0,1.675941236E-2,8.257901192E0,5.538087845E0
4.168769292E0,2.633621916E-2,8.281843185E0,5.494992256E0
4.170784592E0,3.591302410E-2,8.267477989E0,5.430348873E0
4.172799792E0,3.830722719E-2,8.245929718E0,5.399224281E0
4.174815025E0,5.027823523E-2,8.236352921E0,5.384859085E0
4.176830225E0,4.548983276E-2,8.224382401E0,5.368099689E0
4.178845325E0,4.788403213E-2,8.238747597E0,5.360917091E0
4.180860358E0,5.746084079E-2,8.255506516E0,5.356128693E0
4.182875358E0,5.267243832E-2,8.245929718E0,5.346551895E0
4.184890424E0,4.070143029E-2,8.231564522E0,5.327397823E0
4.186905524E0,1.915361360E-2,8.214805603E0,5.291484833E0
4.188920724E0,-4.788403399E-3,8.198045731E0,5.279513836E0
4.190932957E0,-9.576806799E-3,8.186075211E0,5.265148640E0
4.192945123E0,-3.351882473E-2,8.166921616E0,5.248389244E0
4.194957256E0,-8.858546615E-2,8.128614426E0,5.224447250E0
4.196969389E0,-1.005564705E-1,8.111854553E0,5.195716858E0
4.198981555E0,-1.149216816E-1,8.109460831E0,5.183745861E0
4.200993721E0,-1.244984865E-1,8.104672432E0,5.133467674E0
4.203005854E0,-1.244984865E-1,8.104672432E0,5.097554684E0
4.205017887E0,-1.244984865E-1,8.104672432E0,5.085583687E0
4.207029853E0,-1.292868853E-1,8.114249229E0,5.052064896E0
4.209041786E0,-1.173158810E-1,8.131008148E0,5.025728703E0
4.211063019E0,-1.053448766E-1,8.133402824E0,5.006575108E0
4.213084219E0,-1.101332754E-1,8.128614426E0,4.999392509E0
4.215105385E0,-1.053448766E-1,8.114249229E0,4.975450516E0
4.217126585E0,-1.125274822E-1,8.102277756E0,4.961085320E0
4.219147818E0,-1.125274822E-1,8.097489357E0,4.958691120E0
4.221169018E0,-1.197100878E-1,8.080730438E0,4.939537525E0
4.223190184E0,-1.221042871E-1,8.063970566E0,4.920383930E0
4.225209350E0,-1.197100878E-1,8.066365242E0,4.913201332E0
