"Time (s)","Acceleration x (m/s^2)","Acceleration y (m/s^2)","Acceleration z (m/s^2)"
2.027196700E-2,-8.631396294E0,3.430891037E0,2.003946781E0
2.228596700E-2,-8.614637375E0,3.454833031E0,2.116474390E0
2.429996700E-2,-8.588300705E0,3.442862034E0,2.219424963E0
2.631346700E-2,-8.590695381E0,3.466804028E0,2.329558372E0
2.832646700E-2,-8.576330185E0,3.466804028E0,2.387019157E0
3.033946700E-2,-8.552388191E0,3.459621429E0,2.497152328E0
3.235266700E-2,-8.538022995E0,3.411737442E0,2.614468336E0
3.436550000E-2,-8.514080048E0,3.399766445E0,2.674323320E0
3.637821400E-2,-8.459013939E0,3.335123062E0,2.774879694E0
3.849633900E-2,-8.420706749E0,3.253720045E0,2.904166698E0
4.060278300E-2,-8.368034363E0,3.169923067E0,3.055001259E0
4.269998300E-2,-8.327332497E0,3.066972494E0,3.174711466E0
4.478961900E-2,-8.277054787E0,3.016694069E0,3.224989653E0
4.687278500E-2,-8.248324394E0,2.975992680E0,3.342305660E0
4.895047700E-2,-8.233959198E0,2.942473888E0,3.471592426E0
5.102347700E-2,-8.202834129E0,2.925714493E0,3.564966440E0
5.309247700E-2,-8.200440407E0,2.925714493E0,3.620033026E0
5.515791400E-2,-8.190863609E0,2.906560898E0,3.720589399E0
5.722026600E-2,-8.198045731E0,2.916137695E0,3.797203779E0
5.927982100E-2,-8.202834129E0,2.913743496E0,3.847482204E0
6.133697800E-2,-8.257901192E0,2.916137695E0,3.955221176E0
6.339187800E-2,-8.339303970E0,2.916137695E0,4.072536945E0
6.544473500E-2,-8.387187958E0,2.918531895E0,4.149151325E0
6.749568900E-2,-8.485349655E0,2.923320293E0,4.311957359E0
6.954499300E-2,-8.597877502E0,2.920926094E0,4.453215122E0
7.159278400E-2,-8.669703484E0,2.928108692E0,4.501099110E0
7.363914400E-2,-8.935460091E0,2.894589901E0,4.630385876E0
7.568633600E-2,-9.014469147E0,2.892195702E0,4.659116745E0
7.773015000E-2,-9.189245224E0,2.899378300E0,4.699818134E0
7.977282800E-2,-9.268254280E0,2.916137695E0,4.723760128E0
8.181441400E-2,-9.428665161E0,2.952050686E0,4.766855717E0
8.385498000E-2,-9.534010887E0,3.026270866E0,4.829104900E0
8.589548000E-2,-9.567529678E0,3.066972494E0,4.848258495E0
8.793591300E-2,-9.624990463E0,3.131615877E0,4.867412090E0
8.997634600E-2,-9.622595787E0,3.213018656E0,4.896441936E0
9.201671200E-2,-9.610625267E0,3.263296843E0,4.908412933E0
9.405694500E-2,-9.548376083E0,3.303998232E0,4.944325924E0
9.609717800E-2,-9.457395554E0,3.335123062E0,4.975450516E0
9.813744400E-2,-9.409511566E0,3.354276657E0,4.989815712E0
1.001495100E-1,-9.296984673E0,3.368641853E0,5.035305500E0
1.021615760E-1,-9.177274704E0,3.390189648E0,5.030517101E0
1.041735090E-1,-9.050381660E0,3.361459255E0,5.020940304E0
1.061853420E-1,-8.980949402E0,3.347094059E0,4.996998310E0
1.081971420E-1,-8.892364502E0,3.339911461E0,4.920383930E0
1.102089420E-1,-8.810961723E0,3.299209833E0,4.826710701E0
1.122207420E-1,-8.772654533E0,3.294421434E0,4.762067318E0
1.142324750E-1,-8.691251755E0,3.294421434E0,4.601655483E0
1.162441410E-1,-8.650549889E0,3.292027235E0,4.407725334E0
1.182556740E-1,-8.629002571E0,3.275267839E0,4.307168961E0
1.202689070E-1,-8.600272179E0,3.265691042E0,4.101267338E0
1.222803400E-1,-8.549993515E0,3.265691042E0,3.840299606E0
1.242917400E-1,-8.523657799E0,3.263296843E0,3.679888010E0
1.263031060E-1,-8.468590736E0,3.248931646E0,3.351882458E0
1.283145390E-1,-8.420706749E0,3.232172251E0,3.050212860E0
1.303259720E-1,-8.389581680E0,3.215412855E0,2.899378300E0
1.323373380E-1,-8.257901192E0,3.193865061E0,2.621650934E0
1.343487040E-1,-8.056788445E0,3.167528868E0,2.212242365E0
1.363582040E-1,-7.989750385E0,3.119644880E0,2.066195965E0
1.383696370E-1,-7.927501202E0,3.090914488E0,1.912967205E0
1.403811030E-1,-7.807791233E0,3.038241863E0,1.606509328E0
1.423926030E-1,-7.702445984E0,2.987963676E0,1.340752959E0
1.444041690E-1,-7.671321392E0,2.978386879E0,1.242590666E0
1.464157690E-1,-7.609072208E0,2.952050686E0,1.132457376E0
1.484274020E-1,-7.587524414E0,2.918531895E0,1.106121182E0
1.504390680E-1,-7.573159218E0,2.911349297E0,1.127668977E0
1.524508010E-1,-7.554005623E0,2.877830505E0,1.199495077E0
1.544626010E-1,-7.570765018E0,2.834734917E0,1.345541358E0
1.565028010E-1,-7.594707012E0,2.813186884E0,1.537077546E0
1.585430340E-1,-7.637802601E0,2.796427488E0,1.731007814E0
1.605833340E-1,-7.688080788E0,2.801215887E0,1.915361404E0
1.626236670E-1,-7.719205379E0,2.794033289E0,2.013523579E0
1.646640670E-1,-7.800608635E0,2.777273893E0,2.214636564E0
1.667045000E-1,-7.855675220E0,2.789244890E0,2.401384354E0
1.687450000E-1,-7.884405613E0,2.794033289E0,2.497152328E0
1.707855000E-1,-7.937077999E0,2.796427488E0,2.695871115E0
1.728260660E-1,-7.984961987E0,2.815581083E0,2.858676910E0
1.748666660E-1,-8.006509781E0,2.832340717E0,2.937685490E0
1.769073990E-1,-8.040028572E0,2.865859509E0,3.088520288E0
1.789482650E-1,-8.068758965E0,2.870647907E0,3.229778051E0
1.809874650E-1,-8.085518837E0,2.882618904E0,3.318363667E0
1.830283980E-1,-8.107066154E0,2.877830505E0,3.500322819E0
1.850693980E-1,-8.150161743E0,2.870647907E0,3.634398222E0
1.871104310E-1,-8.217199326E0,2.870647907E0,3.751713991E0
1.891514640E-1,-8.243535995E0,2.851494312E0,3.797203779E0
1.911925300E-1,-8.315361977E0,2.820369720E0,3.849876404E0
1.932336960E-1,-8.391976357E0,2.796427488E0,3.849876404E0
1.952748960E-1,-8.514080048E0,2.806004286E0,3.823540211E0
1.973160620E-1,-8.566753387E0,2.810792685E0,3.830722809E0
1.993571280E-1,-8.652944565E0,2.844311714E0,3.861847401E0
2.013981940E-1,-8.696040154E0,2.844311714E0,3.892971992E0
2.034515600E-1,-8.782231331E0,2.870647907E0,3.976768970E0
2.055049930E-1,-8.870816231E0,2.916137695E0,4.072536945E0
2.075584260E-1,-8.918700218E0,2.964021683E0,4.144362926E0
2.096118920E-1,-8.961795807E0,2.973598480E0,4.170699596E0
2.116653580E-1,-9.040804863E0,3.031059265E0,4.216189384E0
2.137188240E-1,-9.117419243E0,3.090914488E0,4.240131378E0
2.157722900E-1,-9.158121109E0,3.145981073E0,4.204218388E0
2.177973900E-1,-9.179668427E0,3.172317266E0,4.177882195E0
2.198224230E-1,-9.165303230E0,3.323152065E0,4.017470360E0
2.218474560E-1,-9.079112053E0,3.505111217E0,3.715801001E0
2.238723890E-1,-9.074323654E0,3.505111217E0,3.651157618E0
2.258973550E-1,-9.105448723E0,3.440467834E0,3.651157618E0
2.279223550E-1,-9.095871925E0,3.342305660E0,3.691859007E0
2.299473210E-1,-9.103054047E0,3.284844637E0,3.722983599E0
2.319722540E-1,-9.110237122E0,3.172317266E0,3.758896589E0
2.339971200E-1,-9.059958458E0,3.093308687E0,3.758896589E0
2.360220200E-1,-9.033622742E0,3.069366693E0,3.763684988E0
2.380752860E-1,-8.832509041E0,3.019088268E0,3.799597979E0
2.401285860E-1,-8.660126686E0,3.040636063E0,3.852270603E0
2.421818860E-1,-8.569147110E0,3.098097086E0,3.900154591E0
2.442352190E-1,-8.334515572E0,3.165134668E0,3.986345768E0
2.462885190E-1,-8.111854553E0,3.191470861E0,4.089296341E0
2.483418520E-1,-8.016086578E0,3.172317266E0,4.110844135E0
2.503951520E-1,-7.798214436E0,3.181894064E0,4.098873138E0
2.524484180E-1,-7.611466408E0,3.201047659E0,4.101267338E0
2.545016510E-1,-7.510910034E0,3.220201254E0,4.098873138E0
2.565548510E-1,-7.252336025E0,3.270479441E0,4.163516521E0
2.586080840E-1,-7.178115845E0,3.265691042E0,4.144362926E0
2.606613500E-1,-7.144597054E0,3.236960649E0,4.086902142E0
2.627146500E-1,-7.132626057E0,3.153163671E0,3.907337189E0
2.647556830E-1,-7.166144848E0,3.035847664E0,3.694253206E0
2.667966490E-1,-7.225999832E0,2.987963676E0,3.564966440E0
2.688376150E-1,-7.269095421E0,3.021482468E0,3.541024208E0
2.708785810E-1,-7.372046471E0,3.138798475E0,3.512293816E0
2.729195140E-1,-7.580341816E0,3.277662039E0,3.438073635E0
2.749604470E-1,-7.688080788E0,3.344699860E0,3.399766445E0
2.770014130E-1,-7.879617214E0,3.495534420E0,3.406949043E0
2.790423130E-1,-7.865252018E0,3.608062029E0,3.495534420E0
2.810831790E-1,-7.791031837E0,3.679888010E0,3.519476414E0
2.831250120E-1,-7.194875240E0,4.146757126E0,3.746925592E0
2.851659450E-1,-6.790255070E0,4.369418144E0,3.799597979E0
2.872069110E-1,-6.708852291E0,4.338293552E0,3.648763418E0
2.892478440E-1,-6.694487095E0,4.194641590E0,3.241749048E0
2.912888100E-1,-6.720823288E0,3.852270603E0,2.983175278E0
2.933298100E-1,-6.763918877E0,3.639186621E0,2.930502892E0
2.953708100E-1,-6.838139534E0,3.215412855E0,2.918531895E0
2.974118430E-1,-6.886023521E0,2.806004286E0,2.966415882E0
2.994244760E-1,-6.897994518E0,2.554613113E0,3.093308687E0
3.014370760E-1,-6.874052525E0,2.463633537E0,3.186682463E0
3.034497420E-1,-6.766313076E0,2.279279947E0,3.363853455E0
3.054624080E-1,-6.687304497E0,2.245761156E0,3.462015629E0
3.074751410E-1,-6.665756702E0,2.267308950E0,3.507505417E0
3.094878740E-1,-6.704063892E0,2.317587137E0,3.608062029E0
3.115006740E-1,-6.737582684E0,2.250549555E0,3.493140221E0
3.135134740E-1,-6.749553680E0,2.231395960E0,3.373430252E0
3.155263070E-1,-6.658574104E0,2.243366957E0,3.399766445E0
3.175391400E-1,-6.627449512E0,2.152387381E0,3.287238836E0
3.195519400E-1,-6.634632111E0,2.078166962E0,3.126827478E0
3.215647730E-1,-6.653785706E0,1.994369984E0,2.748543501E0
3.235775730E-1,-6.720823288E0,1.958456993E0,2.406172752E0
3.255903390E-1,-6.790255070E0,1.896207690E0,2.185906172E0
3.276031050E-1,-6.835745335E0,1.843535304E0,2.094926596E0
3.296159050E-1,-6.972214699E0,1.735796213E0,1.982398987E0
3.316286710E-1,-7.115866661E0,1.776497602E0,2.006340981E0
3.336414370E-1,-7.233182430E0,1.793257117E0,2.066195965E0
3.356542030E-1,-7.530063629E0,1.836352706E0,2.315192938E0
3.376669360E-1,-7.980173588E0,1.963245392E0,2.604891539E0
3.396797690E-1,-8.224382401E0,2.047042370E0,2.813186884E0
3.416926350E-1,-8.791808128E0,2.190694571E0,3.284844637E0
3.437046350E-1,-9.340080261E0,2.284068346E0,3.711012602E0
3.457175680E-1,-9.591471672E0,2.329558372E0,3.895366192E0
3.477305010E-1,-1.002242756E1,2.329558372E0,4.187458992E0
3.497434010E-1,-1.038634586E1,2.221819162E0,4.383783340E0
3.517563010E-1,-1.071674633E1,2.183511972E0,4.587290287E0
3.537692010E-1,-1.089391708E1,2.116474390E0,4.745307922E0
3.557821670E-1,-1.117643261E1,2.039859772E0,5.085583687E0
3.577950670E-1,-1.142064095E1,1.865083098E0,5.286696434E0
3.598078670E-1,-1.150443840E1,1.723825216E0,5.325003624E0
3.618206330E-1,-1.158105278E1,1.484405041E0,5.456685066E0
3.638341660E-1,-1.160260105E1,1.405396342E0,5.404012680E0
3.658467990E-1,-1.160260105E1,1.410184860E0,5.272331238E0
3.678593650E-1,-1.153316879E1,1.549048543E0,4.888959885E0
3.698719650E-1,-1.140867043E1,1.886630893E0,4.563348293E0
3.718845310E-1,-1.132487297E1,2.097320795E0,4.472368717E0
3.738970970E-1,-1.119558620E1,2.566584110E0,4.537012100E0
3.759096630E-1,-1.106869411E1,2.923320293E0,4.690241337E0
3.779222960E-1,-1.095616627E1,3.110068083E0,4.802768707E0
3.799349960E-1,-1.088673401E1,3.131615877E0,4.829104900E0
3.819476960E-1,-1.073589993E1,3.069366693E0,4.790797710E0
3.839603960E-1,-1.050366211E1,2.925714493E0,4.632780075E0
3.859730960E-1,-1.038395214E1,2.849100113E0,4.534617901E0
3.879857620E-1,-1.014692593E1,2.743755102E0,4.326322556E0
3.899984620E-1,-9.859622002E0,2.647987127E0,4.086902142E0
3.920111950E-1,-9.718363762E0,2.614468336E0,3.979163170E0
3.940239610E-1,-9.435848236E0,2.573766708E0,3.849876404E0
3.960367270E-1,-9.158121109E0,2.571372509E0,3.766079187E0
3.980495270E-1,-9.031228065E0,2.568978310E0,3.734954596E0
4.009815270E-1,-8.727164268E0,2.691082716E0,3.794809580E0
4.024589670E-1,-8.545205116E0,2.841917515E0,3.794809580E0
4.044729670E-1,-8.430283546E0,2.896984100E0,3.766079187E0
4.064859670E-1,-8.253112793E0,3.014299870E0,3.651157618E0
4.084984670E-1,-8.140584946E0,3.102885485E0,3.502717018E0
4.105111330E-1,-8.104672432E0,3.141192675E0,3.423708439E0
4.125238830E-1,-8.126219749E0,3.222595453E0,3.303998232E0
4.145366830E-1,-8.169315338E0,3.193865061E0,3.220201254E0
4.165493490E-1,-8.164526939E0,3.162740469E0,3.208230257E0
4.185620630E-1,-8.150161743E0,3.150769472E0,3.129221678E0
4.205748130E-1,-8.159738541E0,3.129221678E0,3.098097086E0
4.225875900E-1,-8.121431351E0,3.083731890E0,3.062183857E0
4.246002900E-1,-8.066365242E0,2.966415882E0,2.911349297E0
4.266130170E-1,-8.025663376E0,2.817975283E0,2.700659513E0
4.286257670E-1,-8.035240173E0,2.707842112E0,2.365471363E0
4.306384590E-1,-8.104672432E0,2.700659513E0,2.226607561E0
4.326511010E-1,-8.329727173E0,2.762908697E0,2.075772762E0
4.346637670E-1,-8.652944565E0,2.887407303E0,2.056619167E0
4.366764540E-1,-8.813355446E0,2.966415882E0,2.061407566E0
4.386890420E-1,-9.294589996E0,3.210624456E0,2.197877169E0
4.407014860E-1,-9.433453560E0,3.284844637E0,2.305616140E0
4.427138540E-1,-9.557952881E0,3.359065056E0,2.427720547E0
4.447261540E-1,-9.826103210E0,3.438073635E0,2.715024710E0
4.467572960E-1,-1.007988834E1,3.500322819E0,3.031059265E0
4.487876590E-1,-1.031930828E1,3.543418407E0,3.385401249E0
4.508172240E-1,-1.042225933E1,3.543418407E0,3.576937437E0
4.528460570E-1,-1.057548809E1,3.495534420E0,3.940855980E0
4.548742170E-1,-1.065210247E1,3.438073635E0,4.268861771E0
4.569017550E-1,-1.066407394E1,3.347094059E0,4.532223701E0
4.589287920E-1,-1.062576675E1,3.306392431E0,4.654327869E0
4.609552920E-1,-1.048690319E1,3.239354849E0,4.879383087E0
4.629813260E-1,-1.038395214E1,3.198653460E0,5.037699699E0
4.650069260E-1,-1.037676907E1,3.208230257E0,5.085583687E0
4.670324920E-1,-1.039113426E1,3.337517262E0,5.181351662E0
4.690580580E-1,-1.021635818E1,3.543418407E0,5.375282288E0
4.710835910E-1,-1.010861874E1,3.636792421E0,5.425560474E0
4.731091240E-1,-9.703998566E0,3.991134167E0,5.444714069E0
4.751346240E-1,-9.510068893E0,4.249708176E0,5.490203857E0
4.771601240E-1,-9.577106476E0,4.235342979E0,5.408801079E0
4.791855900E-1,-9.811738014E0,4.106055737E0,5.224447250E0
4.812392900E-1,-1.007270622E1,3.557783842E0,5.150227070E0
4.832930230E-1,-1.017086792E1,3.380612850E0,5.133467674E0
4.853467890E-1,-1.031691456E1,3.153163671E0,5.325003624E0
4.874005890E-1,-1.050845051E1,3.035847664E0,5.353734493E0
4.894543890E-1,-1.064492035E1,3.071760893E0,5.231629848E0
4.915082550E-1,-1.072153473E1,2.952050686E0,5.200505257E0
4.935621210E-1,-1.065689087E1,2.499546528E0,5.064035892E0
4.956160210E-1,-1.065210247E1,2.339135170E0,4.848258495E0
4.976699210E-1,-1.064013195E1,2.240972757E0,4.532223701E0
4.997238870E-1,-1.060900688E1,2.279279947E0,4.474762917E0
5.017779530E-1,-1.061858368E1,2.348711967E0,4.424484730E0
5.038320860E-1,-1.065210247E1,2.485181332E0,4.333505154E0
5.058862860E-1,-1.064970875E1,2.669534922E0,4.218583584E0
5.079273190E-1,-1.049647999E1,2.794033289E0,4.297592163E0
5.099682850E-1,-1.031691456E1,2.813186884E0,4.405331135E0
5.120092850E-1,-9.926659584E0,2.980781078E0,4.496310711E0
5.140502850E-1,-9.536404610E0,3.157952070E0,4.577713490E0
5.160912850E-1,-9.349657059E0,3.229778051E0,4.592078686E0
5.181323510E-1,-8.990526199E0,3.277662039E0,4.572925091E0
5.201733510E-1,-8.640973091E0,3.251325846E0,4.527435303E0
5.222143170E-1,-8.463802338E0,3.203441858E0,4.539406300E0
5.242552170E-1,-8.140584946E0,3.129221678E0,4.513070107E0
5.262969170E-1,-7.858069420E0,3.009511471E0,4.450820923E0
5.283377830E-1,-7.688080788E0,2.949656487E0,4.455609322E0
5.303786490E-1,-7.362469673E0,2.916137695E0,4.410119534E0
5.324194820E-1,-7.010521889E0,2.930502892E0,4.441244125E0
5.344603150E-1,-6.680121899E0,2.952050686E0,4.469974518E0
5.365011480E-1,-6.541258335E0,3.014299870E0,4.472368717E0
5.385419480E-1,-6.292261124E0,3.069366693E0,4.496310711E0
5.405827480E-1,-6.057629585E0,3.076549292E0,4.584896088E0
5.425952480E-1,-5.964255810E0,3.059789658E0,4.570530891E0
5.446076810E-1,-5.830180645E0,2.978386879E0,4.570530891E0
5.466201140E-1,-5.755959988E0,2.853888512E0,4.548983097E0
5.486324800E-1,-5.753565788E0,2.796427488E0,4.462791920E0
5.506448130E-1,-5.782296181E0,2.647987127E0,4.378994942E0
5.526570790E-1,-5.832574844E0,2.494758129E0,4.302380562E0
5.546693790E-1,-5.854122639E0,2.427720547E0,4.261679173E0
5.566816450E-1,-5.904400826E0,2.308010340E0,4.070142746E0
5.586938780E-1,-5.969044209E0,2.303221941E0,3.833117008E0
5.607060780E-1,-6.086359978E0,2.324769735E0,3.612850428E0
5.627200440E-1,-6.153397560E0,2.327163935E0,3.555389643E0
5.647322100E-1,-6.332962990E0,2.343923569E0,3.473986626E0
5.667444100E-1,-6.524498940E0,2.343923569E0,3.517082214E0
5.687566100E-1,-6.622661114E0,2.308010340E0,3.557783842E0
5.707688430E-1,-6.890811920E0,2.212242365E0,3.610456228E0
5.727810760E-1,-7.259518623E0,2.183511972E0,3.813963413E0
5.747933420E-1,-7.453449249E0,2.154781580E0,3.974374771E0
5.768056080E-1,-7.865252018E0,2.106897593E0,4.290409565E0
5.788178410E-1,-8.253112793E0,2.118868589E0,4.606443882E0
5.808301070E-1,-8.432677269E0,2.140416384E0,4.838681698E0
5.828424730E-1,-8.731952667E0,2.185906172E0,5.447108269E0
5.848549060E-1,-9.028834343E0,2.188300371E0,5.775113583E0
5.868665390E-1,-9.172486305E0,2.176329374E0,5.849334240E0
5.888790390E-1,-9.452607155E0,2.138022184E0,5.794267178E0
5.908915720E-1,-9.680056572E0,2.130839586E0,5.734412193E0
5.929042050E-1,-9.950601578E0,2.130839586E0,5.954679012E0
5.949168380E-1,-1.006791782E1,2.104503393E0,6.079177380E0
5.969294710E-1,-1.028578949E1,2.066195965E0,6.285078526E0
5.989422040E-1,-1.041747093E1,1.999158382E0,6.459855556E0
6.009550040E-1,-1.044141293E1,1.987187386E0,6.524498940E0
6.029678370E-1,-1.040549946E1,2.020706177E0,6.648997307E0
6.049807030E-1,-1.028339577E1,2.070984364E0,6.720823288E0
6.069944690E-1,-1.022114658E1,2.106897593E0,6.742371082E0
6.090073690E-1,-1.005115795E1,2.209848166E0,6.768707275E0
6.110203350E-1,-9.809343338E0,2.353500366E0,6.735188484E0
6.130333350E-1,-9.699210167E0,2.413355350E0,6.708852291E0
6.150463010E-1,-9.498097420E0,2.518700123E0,6.689698696E0
6.170592340E-1,-9.344868660E0,2.592920542E0,6.629843712E0
6.190721670E-1,-9.265859604E0,2.631227732E0,6.457461357E0
6.210851330E-1,-9.258677483E0,2.671929121E0,6.241982937E0
6.230962990E-1,-9.268254280E0,2.674323320E0,6.100725174E0
6.251092650E-1,-9.323320389E0,2.707842112E0,5.715258598E0
6.271222650E-1,-9.344868660E0,2.691082716E0,5.499780655E0
6.291352650E-1,-9.378387451E0,2.707842112E0,5.076006889E0
6.311482310E-1,-9.383175850E0,2.705447912E0,4.730942726E0
6.331611970E-1,-9.373599052E0,2.724601507E0,4.553771496E0
6.351741970E-1,-9.375992775E0,2.806004286E0,4.194641590E0
6.371872630E-1,-9.464578629E0,2.885013103E0,3.928884983E0
6.392002960E-1,-9.512462616E0,2.908955097E0,3.811569214E0
6.412132620E-1,-9.488520622E0,2.966415882E0,4.122815132E0
6.432545280E-1,-9.356839180E0,3.265691042E0,3.639186621E0
6.452957940E-1,-9.356839180E0,3.311181068E0,3.512293816E0
6.473370600E-1,-9.318531990E0,3.282450438E0,3.284844637E0
6.493782930E-1,-9.191639900E0,3.201047659E0,3.105279684E0
6.514195260E-1,-9.110237122E0,3.162740469E0,3.035847664E0
6.534607590E-1,-8.875604630E0,3.145981073E0,2.952050686E0
6.555020250E-1,-8.528446198E0,3.201047659E0,2.865859509E0
6.575433250E-1,-8.284236908E0,3.287238836E0,2.760514498E0
6.595845910E-1,-7.781454563E0,3.483563423E0,2.499546528E0
6.616258570E-1,-7.328950882E0,3.569754839E0,2.197877169E0
6.636671570E-1,-7.125443459E0,3.564966440E0,2.109291792E0
6.657084570E-1,-6.694487095E0,3.567360640E0,1.960851192E0
6.677488900E-1,-6.368875980E0,3.576937437E0,1.766920805E0
6.697902230E-1,-6.179733753E0,3.567360640E0,1.582567334E0
6.718315560E-1,-6.093542576E0,3.526659012E0,1.470039845E0
6.738729220E-1,-5.990592003E0,3.493140221E0,1.201889277E0
6.759142880E-1,-5.995380402E0,3.447650433E0,9.481038451E-1
6.779557210E-1,-6.060023785E0,3.406949043E0,8.403648138E-1
6.799971870E-1,-6.237194538E0,3.284844637E0,6.560112834E-1
6.820386200E-1,-6.337751389E0,3.301604033E0,5.650315881E-1
6.840800530E-1,-6.335357189E0,3.323152065E0,5.530605912E-1
6.861214860E-1,-6.390423775E0,3.229778051E0,3.806780577E-1
6.881627860E-1,-6.517316341E0,3.038241863E0,2.777273953E-1
6.902162520E-1,-6.637026310E0,2.817975283E0,1.795651317E-1
6.922697520E-1,-6.711246490E0,2.729389906E0,1.053448766E-1
6.943232520E-1,-6.838139534E0,2.580949545E0,5.746084079E-2
6.963766850E-1,-6.924330711E0,2.485181332E0,6.464344263E-2
6.984300850E-1,-6.833351135E0,2.540247917E0,1.316810995E-1
7.004834850E-1,-6.728005886E0,2.734178305E0,3.423708379E-1
7.025369850E-1,-6.450278759E0,2.964021683E0,5.626373887E-1
7.045621180E-1,-6.320991993E0,2.880224705E0,7.661445141E-1
7.065872840E-1,-6.407183170E0,2.679111719E0,7.781155705E-1
7.086124500E-1,-6.761524677E0,2.176329374E0,8.044517636E-1
7.106376830E-1,-7.139808655E0,1.786074519E0,8.978256583E-1
7.126629160E-1,-7.257124424E0,1.716642618E0,1.027112484E0
7.146881160E-1,-7.424718857E0,1.659181833E0,1.335964561E0
7.167132820E-1,-7.836521626E0,1.326387763E0,1.388636947E0
7.187384150E-1,-8.138191223E0,1.084573388E0,1.323993564E0
7.207635150E-1,-8.643367767E0,8.092401624E-1,1.244984865E0
7.227885480E-1,-8.566753387E0,1.223437071E0,1.575384736E0
7.257195480E-1,-8.054393768E0,1.999158382E0,2.197877169E0
7.278669670E-1,-8.018480301E0,1.987187386E0,2.363077164E0
7.298799670E-1,-8.463802338E0,1.436521053E0,2.133233786E0
7.318929670E-1,-8.650549889E0,1.211466074E0,2.097320795E0
7.339059670E-1,-8.511686325E0,1.357512355E0,2.456450939E0
7.359186330E-1,-7.941866398E0,1.886630893E0,3.227383852E0
7.379313830E-1,-7.810185432E0,1.872265697E0,3.435679436E0
7.399441830E-1,-7.920318604E0,1.498770237E0,3.318363667E0
7.419570160E-1,-7.858069420E0,1.412579060E0,3.380612850E0
7.439697300E-1,-7.771877766E0,1.211466074E0,3.722983599E0
7.459823550E-1,-7.903559208E0,9.337386489E-1,3.773261786E0
7.479952430E-1,-8.233959198E0,4.309563041E-1,3.737348795E0
7.500082430E-1,-7.846098423E0,9.265560508E-1,4.027047157E0
7.520212430E-1,-7.496544838E0,1.307234168E0,4.347870350E0
7.540344090E-1,-7.240365028E0,1.467645645E0,4.443638325E0
7.560477160E-1,-7.149385452E0,1.491587639E0,4.158728123E0
7.580610010E-1,-7.091924667E0,1.532289028E0,4.089296341E0
7.600743340E-1,-7.051223278E0,1.493981838E0,3.902548790E0
7.620877090E-1,-7.041646481E0,1.491587639E0,3.624821424E0
7.641010610E-1,-7.048829079E0,1.496376038E0,3.469198227E0
7.661143380E-1,-7.115866661E0,1.515529633E0,3.143586874E0
7.681276010E-1,-7.194875240E0,1.491587639E0,2.798821688E0
7.701408010E-1,-7.230788231E0,1.484405041E0,2.612074137E0
7.721540390E-1,-7.276278019E0,1.443703651E0,2.279279947E0
7.741672200E-1,-7.321768284E0,1.328781962E0,1.960851192E0
7.761803500E-1,-7.312191486E0,1.271321058E0,1.675941229E0
7.781934330E-1,-7.316979885E0,1.261744261E0,1.551442742E0
7.802065130E-1,-7.235576630E0,1.400607944E0,1.352723956E0
7.822195890E-1,-7.067982674E0,1.680729628E0,1.108515382E0
7.842326630E-1,-6.953061104E0,1.831564307E0,9.552865028E-1
7.862457340E-1,-6.766313076E0,2.157175779E0,7.182605267E-1
7.882587680E-1,-6.730400085E0,2.209848166E0,8.475474119E-1
7.902718010E-1,-6.672939301E0,2.243366957E0,8.786720037E-1
7.922849010E-1,-6.615478516E0,2.243366957E0,8.595184088E-1
7.942980340E-1,-6.718429089E0,2.291250944E0,9.504981041E-1
7.963112340E-1,-6.818985939E0,2.276885748E0,1.022324085E0
7.983244670E-1,-7.067982674E0,2.185906172E0,1.280897856E0
8.003377330E-1,-7.429507256E0,2.260126352E0,1.565807939E0
8.023510330E-1,-7.767089367E0,2.298433542E0,1.812410712E0
8.043643990E-1,-8.111854553E0,2.616862535E0,2.116474390E0
8.063795320E-1,-8.279448509E0,2.767697096E0,2.161964178E0
8.083927980E-1,-8.573935509E0,3.289633036E0,2.178723574E0
8.104060640E-1,-8.662521362E0,3.608062029E0,2.240972757E0
8.124193970E-1,-8.779836655E0,4.285621166E0,2.272097349E0
8.144326630E-1,-8.825326920E0,4.908412933E0,2.317587137E0
8.164459290E-1,-8.837297440E0,5.176563263E0,2.365471363E0
8.184592290E-1,-8.832509041E0,5.712864399E0,2.525882721E0
8.204724950E-1,-8.767866135E0,6.155791759E0,2.734178305E0
8.224856950E-1,-8.729558945E0,6.349722385E0,2.849100113E0
8.244988950E-1,-8.624214172E0,6.761524677E0,3.122039080E0
8.265121280E-1,-8.621819496E0,7.005733490E0,3.411737442E0
8.285253610E-1,-8.679280281E0,7.065588474E0,3.782838583E0
8.305386270E-1,-8.755894661E0,7.151779652E0,3.991134167E0
8.325518270E-1,-9.019257545E0,7.099107265E0,4.527435303E0
8.345650600E-1,-9.332897186E0,6.852504730E0,5.080795288E0
8.365783600E-1,-9.510068893E0,6.694487095E0,5.272331238E0
8.385917260E-1,-1.002242756E1,6.158185959E0,5.372888088E0
8.406051590E-1,-1.069759274E1,5.528511047E0,4.949114323E0
8.426185920E-1,-1.116206741E1,5.281908035E0,4.611232281E0
8.446320250E-1,-1.227297688E1,4.845864296E0,3.845088005E0
8.466453910E-1,-1.373583412E1,4.118026733E0,2.964021683E0
8.486587910E-1,-1.461211205E1,3.605667830E0,2.762908697E0
8.506728570E-1,-1.655650330E1,2.422932148E0,3.505111217E0
8.526862230E-1,-1.836412621E1,9.481038451E-1,5.837363243E0
8.546995890E-1,-1.966896629E1,7.900865376E-2,8.415918350E0
8.567129550E-1,-2.012625885E1,-1.769315004E0,9.517251015E0
8.587262880E-1,-2.077269173E1,-3.287238836E0,1.104714584E1
8.607396210E-1,-2.125632095E1,-4.067748547E0,1.196412563E1
8.627529540E-1,-2.147658730E1,-4.115632534E0,1.216284370E1
8.647662870E-1,-2.207513809E1,-3.014299870E0,1.162175465E1
8.667794200E-1,-2.222357941E1,-2.300827742E0,1.109742451E1
8.687943860E-1,-2.233371162E1,-1.491587639E0,1.047493172E1
8.708092860E-1,-2.246299934E1,2.633621991E-1,9.249100685E0
8.728241520E-1,-2.243666267E1,1.948880196E0,8.356062889E0
8.748390180E-1,-2.240553856E1,2.645592928E0,8.049605370E0
8.768538180E-1,-2.232413483E1,3.699041605E0,7.695263386E0
8.788686180E-1,-2.213259888E1,4.347870350E0,7.477391243E0
8.808834180E-1,-2.183811188E1,4.551377296E0,7.271489620E0
8.828982510E-1,-2.165375900E1,4.831499100E0,7.158962250E0
8.849131170E-1,-2.124435043E1,4.896441936E0,6.893206120E0
8.869562170E-1,-2.073678017E1,4.774038315E0,6.579565525E0
8.889993500E-1,-2.012146950E1,4.513070107E0,6.268319130E0
8.910424830E-1,-1.947264099E1,4.146757126E0,6.050446987E0
8.930856490E-1,-1.914224052E1,3.928884983E0,5.957073212E0
8.951288490E-1,-1.849101830E1,3.509899616E0,5.729623795E0
8.971720150E-1,-1.791162109E1,3.093308687E0,5.466261864E0
8.992151810E-1,-1.765065384E1,2.904166698E0,5.303455830E0
9.012583140E-1,-1.718139076E1,2.568978310E0,4.891354084E0
9.033014800E-1,-1.684141350E1,2.257732153E0,4.326322556E0
9.053446460E-1,-1.664030075E1,1.953668594E0,3.699041605E0
9.073878790E-1,-1.658283997E1,1.810016513E0,3.361459255E0
9.094311120E-1,-1.654692650E1,1.515529633E0,2.650381327E0
9.114737120E-1,-1.661875343E1,1.252167463E0,1.956062794E0
9.135169450E-1,-1.667621422E1,1.118092179E0,1.623268723E0
9.155601110E-1,-1.681507683E1,8.595184088E-1,1.007958889E0
9.176032440E-1,-1.694196892E1,6.344634295E-1,4.860229492E-1
9.196463440E-1,-1.700182533E1,5.339069963E-1,2.489969730E-1
9.216894100E-1,-1.711674690E1,3.375824392E-1,-1.604115069E-1
9.237324430E-1,-1.717420769E1,2.106897533E-1,-5.434837937E-1
9.257754760E-1,-1.718139076E1,1.149216816E-1,-9.121908545E-1
9.278169420E-1,-1.716223717E1,7.182604820E-2,-1.055842996E0
9.298583750E-1,-1.712153435E1,-6.224924326E-2,-1.283292055E0
9.318998080E-1,-1.706407356E1,-1.364694983E-1,-1.479616642E0
9.339540740E-1,-1.699703598E1,-3.327940404E-1,-1.663970232E0
9.360084740E-1,-1.699224854E1,-3.878606856E-1,-1.762132406E0
9.380629400E-1,-1.698267174E1,-5.243301988E-1,-1.946485996E0
9.401173730E-1,-1.704970932E1,-6.871358752E-1,-2.056619167E0
9.421718060E-1,-1.711195755E1,-7.733271718E-1,-2.097320795E0
9.442262720E-1,-1.731067657E1,-9.672574997E-1,-2.209848166E0
9.462807380E-1,-1.756446266E1,-1.225831270E0,-2.339135170E0
9.483070040E-1,-1.772008514E1,-1.376665950E0,-2.401384354E0
9.503333040E-1,-1.802175522E1,-1.745373011E0,-2.537853718E0
9.523596700E-1,-1.832102966E1,-2.109291792E0,-2.667140722E0
9.543860360E-1,-1.847665215E1,-2.274491549E0,-2.748543501E0
9.564123690E-1,-1.871367836E1,-2.566584110E0,-2.880224705E0
9.584387020E-1,-1.892197418E1,-2.767697096E0,-2.949656487E0
9.604650020E-1,-1.912069321E1,-2.844311714E0,-2.966415882E0
9.624912680E-1,-1.921406746E1,-2.949656487E0,-2.947262287E0
9.645175010E-1,-1.942475700E1,-3.002328873E0,-2.894589901E0
9.665437340E-1,-1.963544655E1,-3.050212860E0,-2.774879694E0
9.694767340E-1,-1.982698250E1,-3.069366693E0,-2.533065319E0
9.716649670E-1,-1.995387459E1,-3.119644880E0,-2.219424963E0
9.736789670E-1,-1.998978806E1,-3.126827478E0,-2.030282974E0
9.756919670E-1,-1.990120316E1,-3.131615877E0,-1.620874524E0
9.777054670E-1,-1.963544655E1,-3.124433279E0,-1.213860273E0
9.797191330E-1,-1.917815399E1,-3.100491285E0,-8.188169599E-1
9.817328830E-1,-1.889085007E1,-3.057395458E0,-6.272808313E-1
9.837464830E-1,-1.823483849E1,-2.975992680E0,-2.777273953E-1
9.857601490E-1,-1.743996429E1,-2.853888512E0,5.027823523E-2
9.877737200E-1,-1.656608009E1,-2.695871115E0,3.375824392E-1
9.897927200E-1,-1.611597061E1,-2.595314741E0,4.620809257E-1
9.918112750E-1,-1.517744350E1,-2.432508945E0,6.943184733E-1
9.938291750E-1,-1.470578575E1,-2.331952572E0,7.996633649E-1
9.958466290E-1,-1.377174759E1,-2.130839586E0,9.433154464E-1
9.978636290E-1,-1.284997940E1,-1.891419291E0,1.051054597E0
9.998803210E-1,-1.240465832E1,-1.764526606E0,1.103726983E0
1.001896749E0,-1.148049641E1,-1.527500629E0,1.230619669E0
1.003913015E0,-1.056830597E1,-1.323993564E0,1.323993564E0
1.005929077E0,-9.706393242E0,-1.089361787E0,1.352723956E0
1.007944900E0,-9.311349869E0,-9.816226959E-1,1.412579060E0
1.009960455E0,-8.607454300E0,-7.829039693E-1,1.510741234E0
1.011975823E0,-8.028057098E0,-6.224924326E-1,1.604115129E0
1.013991023E0,-7.781454563E0,-5.482721925E-1,1.659181833E0
1.016006165E0,-7.372046471E0,-4.046200812E-1,1.795651317E0
1.018021255E0,-7.032069683E0,-2.849099934E-1,1.968033791E0
1.020036341E0,-6.878840923E0,-2.466027737E-1,2.061407566E0
1.022051382E0,-6.591536522E0,-2.226607651E-1,2.233790159E0
1.024066342E0,-6.311414719E0,-1.867477298E-1,2.396595955E0
1.026081188E0,-6.158185959E0,-1.771709323E-1,2.480392933E0
1.028095965E0,-5.822998047E0,-1.508347094E-1,2.683900118E0
1.030110643E0,-5.499780655E0,-6.703764945E-2,2.880224705E0
1.032125229E0,-5.195716858E0,-2.633621916E-2,3.095702887E0
1.034139729E0,-5.040093899E0,4.309562966E-2,3.196259260E0
1.036154195E0,-4.757278919E0,8.140286058E-2,3.392583847E0
1.038168628E0,-4.465186119E0,1.053448766E-1,3.545812607E0
1.040183028E0,-4.323928356E0,1.244984865E-1,3.588908434E0
1.042197428E0,-4.050989151E0,1.795651317E-1,3.636792421E0
1.044211794E0,-3.782838583E0,2.298433632E-1,3.620033026E0
1.046226127E0,-3.651157618E0,2.561795712E-1,3.586514235E0
1.048240427E0,-3.222595453E0,3.351882398E-1,3.411737442E0
1.050254993E0,-3.095702887E0,3.447650373E-1,3.332728863E0
1.052267693E0,-2.952050686E0,3.591302633E-1,3.256114244E0
1.054280459E0,-2.640804529E0,3.543418646E-1,3.102885485E0
1.056293225E0,-2.341529369E0,3.256114423E-1,2.940079689E0
1.058306025E0,-2.047042370E0,2.729389966E-1,2.774879694E0
1.060318791E0,-1.900996208E0,2.489969730E-1,2.674323320E0
1.062331557E0,-1.577778935E0,2.082955539E-1,2.432508945E0
1.064344290E0,-1.225831270E0,1.556231081E-1,2.200271368E0
1.066357056E0,-1.031900883E0,1.197100878E-1,2.061407566E0
1.068369889E0,-6.512228847E-1,4.309562966E-2,1.707065821E0
1.070382822E0,-2.059013397E-1,-3.591302410E-2,1.304839969E0
1.072395788E0,1.436521020E-2,-6.464344263E-2,1.115697980E0
1.074408788E0,4.141969085E-1,-9.097966552E-2,7.924807668E-1
1.076421788E0,7.805097699E-1,-5.985504389E-2,5.434837937E-1
1.078434721E0,9.744400978E-1,-4.309562966E-2,3.687070608E-1
1.080447587E0,1.326387763E0,-5.267243832E-2,-4.788403399E-3
1.082460453E0,1.731007814E0,-1.053448766E-1,-2.753331959E-1
1.084473319E0,2.109291792E0,-1.292868853E-1,-4.213795066E-1
1.086486252E0,2.267308950E0,-1.197100878E-1,-7.637503147E-1
1.088499152E0,2.521094322E0,-5.267243832E-2,-1.077390790E0
1.090512018E0,2.748543501E0,1.915361360E-2,-1.367089152E0
1.092524884E0,2.846705914E0,6.943184882E-2,-1.498770237E0
1.094538450E0,3.014299870E0,1.675941199E-1,-1.731007814E0
1.096551383E0,3.172317266E0,2.226607651E-1,-1.948880196E0
1.098564316E0,3.236960649E0,2.418143749E-1,-2.032677174E0
1.100577249E0,3.390189648E0,2.250549644E-1,-2.202665567E0
1.102590149E0,3.567360640E0,1.867477298E-1,-2.355894566E0
1.104603082E0,3.672705412E0,1.628057212E-1,-2.415749550E0
1.106615982E0,3.859453201E0,9.097966552E-2,-2.545036316E0
1.108628982E0,4.139574528E0,-3.112462163E-2,-2.657563925E0
1.110640248E0,4.311957359E0,-9.576806426E-2,-2.715024710E0
1.112653314E0,4.776432514E0,-2.537853718E-1,-2.863465309E0
1.114666314E0,5.348946095E0,-4.022258818E-1,-3.038241863E0
1.116679314E0,5.995380402E0,-4.788403511E-1,-3.222595453E0
1.118692314E0,6.359299183E0,-4.836287498E-1,-3.306392431E0
1.120705347E0,7.137414455E0,-4.692635238E-1,-3.481169224E0
1.122718380E0,7.984961987E0,-4.620809257E-1,-3.591302633E0
1.124731480E0,8.439860344E0,-4.884171486E-1,-3.653551817E0
1.126744546E0,9.404723167E0,-5.937620401E-1,-3.833117008E0
1.128757646E0,1.032409668E1,-7.086837292E-1,-4.072536945E0
1.131690646E0,1.127459526E1,-8.020575643E-1,-4.347870350E0
1.133672967E0,1.238071632E1,-9.552865028E-1,-4.589684486E0
1.135686967E0,1.337670422E1,-1.125274777E0,-4.826710701E0
1.137699967E0,1.377414131E1,-1.156399369E0,-4.977844715E0
1.139712967E0,1.457859325E1,-1.225831270E0,-5.296273232E0
1.141725967E0,1.525405788E1,-1.407790542E0,-5.607519627E0
1.143738717E0,1.551981354E1,-1.498770237E0,-5.794267178E0
1.145751517E0,1.593879890E1,-1.707065821E0,-6.210858345E0
1.147764350E0,1.609921074E1,-1.932120800E0,-6.648997307E0
1.149777207E0,1.608963394E1,-2.008735180E0,-6.893206120E0
1.151790082E0,1.587415600E1,-2.073378563E0,-7.357681274E0
1.153803193E0,1.526602840E1,-1.991975784E0,-7.716811180E0
1.155816293E0,1.478958225E1,-1.850717902E0,-7.846098423E0
1.157829474E0,1.357781696E1,-1.462857246E0,-7.956231594E0
1.159842807E0,1.217242050E1,-9.816226959E-1,-7.937077999E0
1.161856191E0,1.068562126E1,-4.213795066E-1,-7.834127426E0
1.163869619E0,9.902717590E0,-1.101332754E-1,-7.743147373E0
1.165883019E0,8.284236908E0,5.889736414E-1,-7.465420246E0
1.167896394E0,6.634632111E0,1.388636947E0,-7.087136269E0
1.169909688E0,4.961085320E0,2.176329374E0,-6.572382927E0
1.171922799E0,4.132391930E0,2.578555346E0,-6.253953934E0
1.173935851E0,2.451662540E0,3.368641853E0,-5.564424038E0
1.175948851E0,1.606509328E0,3.756502390E0,-5.226841450E0
1.177979327E0,-7.422025502E-2,4.434061527E0,-4.544194698E0
1.180009054E0,-1.786074519E0,4.977844715E0,-3.878606796E0
1.182038054E0,-3.519476414E0,5.396830082E0,-3.280056238E0
1.184066387E0,-4.417302132E0,5.552453041E0,-3.002328873E0
1.186094107E0,-6.280290127E0,5.808632374E0,-2.468421936E0
1.188121299E0,-8.214805603E0,6.033687592E0,-1.889025092E0
1.190147965E0,-1.012537861E1,6.203675747E0,-1.266532660E0
1.192174215E0,-1.119319248E1,6.241982937E0,-9.265560508E-1
1.194200042E0,-1.324981117E1,6.301837921E0,-2.346317619E-1
1.196225508E0,-1.517983723E1,6.383241177E0,5.291185975E-1
1.198250974E0,-1.607526970E1,6.409577370E0,9.385270476E-1
1.200276474E0,-1.787810326E1,6.421548367E0,1.805228114E0
1.202302040E0,-1.958756256E1,6.347328186E0,2.602497339E0
1.204327706E0,-2.038483238E1,6.275501728E0,2.987963676E0
1.206353406E0,-2.191951561E1,6.050446987E0,3.801992416E0
1.208379172E0,-2.338716125E1,5.736806393E0,4.644751072E0
1.210404972E0,-2.407429695E1,5.542876244E0,5.078401089E0
1.212459038E0,-2.596601486E1,4.956296921E0,6.428730965E0
1.214513104E0,-2.707213593E1,4.556165695E0,7.348104477E0
1.216567204E0,-2.756773567E1,4.374206543E0,7.795820236E0
1.218621304E0,-2.845119667E1,4.015076160E0,8.602665901E0
1.220675370E0,-2.913593864E1,3.744531393E0,9.414299965E0
1.222729436E0,-2.938972282E1,3.622427225E0,9.768642426E0
1.224783502E0,-2.973448944E1,3.447650433E0,1.032888508E1
1.226837602E0,-2.982546806E1,3.411737442E0,1.075265884E1
1.228891735E0,-2.976561356E1,3.447650433E0,1.090349388E1
1.230945935E0,-2.917663956E1,3.665522814E0,1.106869411E1
1.233000235E0,-2.884384537E1,3.768473387E0,1.104954052E1
1.235054568E0,-2.845359039E1,3.909731388E0,1.100165653E1
1.237108934E0,-2.750069809E1,4.259284973E0,1.081490803E1
1.239151034E0,-2.632753944E1,4.627991676E0,1.044141293E1
1.241193100E0,-2.498918152E1,4.985027313E0,9.948206902E0
1.243235166E0,-2.429456329E1,5.159803867E0,9.672874451E0
1.245277299E0,-2.290113831E1,5.466261864E0,9.138967514E0
1.247319432E0,-2.150531769E1,5.732017994E0,8.672098160E0
1.249361598E0,-2.078705788E1,5.842151642E0,8.425495148E0
1.251403798E0,-1.932898903E1,6.014533997E0,7.846098423E0
1.253445964E0,-1.785416031E1,6.134243965E0,7.218817234E0
1.255488130E0,-1.712632370E1,6.158185959E0,6.888417721E0
1.257530230E0,-1.571613884E1,6.213252544E0,6.244377136E0
1.259572363E0,-1.437029743E1,6.234800339E0,5.609913826E0
1.261614463E0,-1.369752693E1,6.246771336E0,5.284302235E0
1.263656496E0,-1.239268684E1,6.275501728E0,4.656722069E0
1.265698462E0,-1.120037460E1,6.301837921E0,4.089296341E0
1.267740395E0,-1.010622501E1,6.309020519E0,3.569754839E0
1.269782295E0,-9.605836868E0,6.328174591E0,3.335123062E0
1.271824195E0,-8.648156166E0,6.347328186E0,2.887407303E0
1.273837828E0,-7.836521626E0,6.368875980E0,2.516305923E0
1.275851494E0,-7.474997044E0,6.371270180E0,2.355894566E0
1.277865127E0,-6.871658325E0,6.373664379E0,2.073378563E0
1.279878793E0,-6.409577370E0,6.335357189E0,1.843535304E0
1.281892459E0,-6.244377136E0,6.316203594E0,1.752555609E0
1.283906125E0,-6.004957199E0,6.261136532E0,1.620874524E0
1.285919758E0,-5.844545841E0,6.153397560E0,1.534683347E0
1.287933458E0,-5.808632374E0,6.098330975E0,1.496376038E0
1.289947224E0,-5.748777390E0,5.973832607E0,1.462857246E0
1.291961024E0,-5.681739807E0,5.827786446E0,1.458068848E0
1.293976490E0,-5.631461620E0,5.655403614E0,1.470039845E0
1.295990390E0,-5.612308025E0,5.564424038E0,1.477222443E0
1.298004356E0,-5.557241440E0,5.377676487E0,1.477222443E0
1.300018389E0,-5.511751652E0,5.186140060E0,1.460463047E0
1.302032455E0,-5.504569054E0,5.073612690E0,1.436521053E0
1.304046588E0,-5.511751652E0,4.833893299E0,1.338358760E0
1.306060654E0,-5.521328449E0,4.594472885E0,1.213860273E0
1.308074720E0,-5.535693645E0,4.481945515E0,1.132457376E0
1.310088753E0,-5.557241440E0,4.266467571E0,9.313444495E-1
1.312102786E0,-5.619490623E0,4.050989151E0,7.110779285E-1
1.314116786E0,-5.662586212E0,3.955221176E0,5.985504389E-1
1.316130819E0,-5.803843975E0,3.792415380E0,3.280056417E-1
1.318144919E0,-5.945102215E0,3.641580820E0,4.309562966E-2
1.320158985E0,-6.081571579E0,3.574543238E0,-2.226607651E-1
1.322173051E0,-6.155791759E0,3.495534420E0,-3.711012602E-1
1.324187151E0,-6.342539787E0,3.428496838E0,-6.464344859E-1
1.326201251E0,-6.548440933E0,3.373430252E0,-8.667010069E-1
1.328215384E0,-6.663362503E0,3.339911461E0,-9.720458984E-1
1.330229517E0,-6.926724911E0,3.296815634E0,-1.163581967E0
1.332243650E0,-7.240365028E0,3.258508444E0,-1.266532660E0
1.334257750E0,-7.412747860E0,3.246537447E0,-1.312022567E0
1.336271783E0,-7.817368031E0,3.215412855E0,-1.367089152E0
1.338286616E0,-8.241141319E0,3.172317266E0,-1.383848548E0
1.340300616E0,-8.470984459E0,3.157952070E0,-1.376665950E0
1.342314649E0,-8.942642212E0,3.134010077E0,-1.347935557E0
1.344328715E0,-9.447818756E0,3.124433279E0,-1.266532660E0
1.346342848E0,-9.921871185E0,3.136404276E0,-1.213860273E0
1.348356914E0,-1.017565632E1,3.145981073E0,-1.067813993E0
1.350370947E0,-1.062576675E1,3.150769472E0,-8.475474119E-1
1.352384913E0,-1.098489666E1,3.181894064E0,-6.081272364E-1
1.354397213E0,-1.116206741E1,3.193865061E0,-4.836287498E-1
1.356411113E0,-1.148528481E1,3.232172251E0,-2.202665508E-1
1.358425013E0,-1.178216553E1,3.289633036E0,3.830722719E-2
1.360438946E0,-1.190666389E1,3.313575268E0,1.508347094E-1
1.362452879E0,-1.213650799E1,3.373430252E0,3.734954596E-1
1.364466779E0,-1.233043766E1,3.414131641E0,5.770025849E-1
1.366480712E0,-1.242860031E1,3.428496838E0,6.799532771E-1
1.368494645E0,-1.257704067E1,3.447650433E0,8.906430602E-1
1.370508578E0,-1.270153904E1,3.471592426E0,1.101332784E0
1.372522478E0,-1.278533649E1,3.459621429E0,1.302445769E0
1.374564711E0,-1.283082581E1,3.488351822E0,1.510741234E0
1.376606944E0,-1.283082581E1,3.512293816E0,1.661576033E0
1.378649110E0,-1.280209541E1,3.526659012E0,1.723825216E0
1.380691276E0,-1.269914532E1,3.557783842E0,1.819593310E0
1.382733442E0,-1.257225227E1,3.588908434E0,1.881842494E0
1.384775608E0,-1.249324417E1,3.620033026E0,1.891419291E0
1.386817808E0,-1.231367874E1,3.658340216E0,1.869871497E0
1.388860008E0,-1.212214279E1,3.675099611E0,1.826775908E0
1.390902174E0,-1.201440334E1,3.696647406E0,1.776497602E0
1.392944307E0,-1.181329060E1,3.734954596E0,1.661576033E0
1.394986473E0,-1.157865906E1,3.773261786E0,1.484405041E0
1.397028573E0,-1.132487297E1,3.801992416E0,1.266532660E0
1.399069906E0,-1.120995140E1,3.816357613E0,1.158793569E0
1.401112006E0,-1.096095467E1,3.845088005E0,9.385270476E-1
1.403154039E0,-1.073350525E1,3.845088005E0,7.278373241E-1
1.405196039E0,-1.062816048E1,3.857059002E0,6.344634295E-1
1.407238005E0,-1.045577812E1,3.864241600E0,4.596867263E-1
1.409279938E0,-1.026663589E1,3.845088005E0,3.088520169E-1
1.411321804E0,-1.017326260E1,3.857059002E0,2.466027737E-1
1.413363704E0,-9.962572098E0,3.919308186E0,8.619125932E-2
1.415405570E0,-9.888352394E0,3.936067581E0,4.070143029E-2
1.417447370E0,-9.811738014E0,3.945644379E0,1.197100803E-2
1.419489070E0,-9.675268173E0,3.976768970E0,-4.070143029E-2
1.421543536E0,-9.553164482E0,4.003105164E0,-6.224924326E-2
1.423598036E0,-9.440636635E0,4.048594952E0,-8.858546615E-2
1.425652569E0,-9.337685585E0,4.055777550E0,-8.858546615E-2
1.427707135E0,-9.287407875E0,4.091690540E0,-8.858546615E-2
1.429761768E0,-9.203610420E0,4.120420933E0,-6.703764945E-2
1.431816401E0,-9.131784439E0,4.144362926E0,-2.154781483E-2
1.433871067E0,-9.098265648E0,4.151545525E0,1.436521020E-2
1.435897400E0,-9.028834343E0,4.180276394E0,9.337386489E-2
1.437923700E0,-8.957007408E0,4.218583584E0,1.556231081E-1
1.439950100E0,-8.928277016E0,4.225766182E0,1.915361285E-1
1.441976500E0,-8.846874237E0,4.237737179E0,2.873041928E-1
1.444002933E0,-8.782231331E0,4.216189384E0,3.423708379E-1
1.446029366E0,-8.760683060E0,4.218583584E0,3.806780577E-1
1.448055766E0,-8.693645477E0,4.201824188E0,4.596867263E-1
1.450082232E0,-8.638579369E0,4.151545525E0,5.003881454E-1
1.452108732E0,-8.576330185E0,4.110844135E0,5.027823448E-1
1.454135265E0,-8.559570312E0,4.022258759E0,4.884171486E-1
1.457069265E0,-8.576330185E0,3.888183594E0,4.094084799E-1
1.459241967E0,-8.593089104E0,3.830722809E0,3.950432837E-1
1.461254967E0,-8.640973091E0,3.732560396E0,3.663128614E-1
1.463267967E0,-8.724770546E0,3.643975019E0,3.423708379E-1
1.465281467E0,-8.779836655E0,3.596091032E0,3.184288144E-1
1.467294800E0,-8.897152901E0,3.526659012E0,2.896983922E-1
1.469308050E0,-9.009679794E0,3.483563423E0,2.609679997E-1
1.471321250E0,-9.131784439E0,3.459621429E0,2.250549644E-1
1.473334250E0,-9.174880028E0,3.426102638E0,2.035071403E-1
1.475347250E0,-9.217975616E0,3.414131641E0,1.364694983E-1
1.477369500E0,-9.217975616E0,3.414131641E0,9.816227108E-2
1.479390833E0,-9.203610420E0,3.414131641E0,5.985504389E-2
1.481411433E0,-9.136572838E0,3.428496838E0,-2.633621916E-2
1.483431523E0,-9.043199539E0,3.426102638E0,-1.244984865E-1
1.485451106E0,-9.002497673E0,3.421314240E0,-1.651999205E-1
1.487470182E0,-8.892364502E0,3.378218651E0,-2.561795712E-1
1.489488896E0,-8.719982147E0,3.330334663E0,-3.040636182E-1
1.491507296E0,-8.645761490E0,3.299209833E0,-3.112462163E-1
1.493525421E0,-8.456619263E0,3.251325846E0,-3.327940404E-1
1.495543303E0,-8.286631584E0,3.201047659E0,-3.088520169E-1
1.497560803E0,-8.126219749E0,3.155557871E0,-2.609679997E-1
1.499578066E0,-8.047211647E0,3.141192675E0,-1.963245422E-1
1.501595116E0,-7.891588211E0,3.129221678E0,-3.591302410E-2
1.503611973E0,-7.743147373E0,3.105279684E0,1.699883193E-1
1.505628700E0,-7.652167797E0,3.107673883E0,2.753331959E-1
1.507645265E0,-7.489362240E0,3.110068083E0,5.171475410E-1
1.509661723E0,-7.302614689E0,3.141192675E0,7.422025204E-1
1.511678123E0,-7.204452038E0,3.167528868E0,8.451532125E-1
1.513694392E0,-7.012916088E0,3.193865061E0,1.053448796E0
1.515710540E0,-6.814197540E0,3.234566450E0,1.276109457E0
1.517726647E0,-6.713640690E0,3.265691042E0,1.381454349E0
1.519742681E0,-6.538864136E0,3.308786631E0,1.589749932E0
1.521758681E0,-6.354510784E0,3.342305660E0,1.762132406E0
1.523774681E0,-6.206069946E0,3.375824451E0,1.884236693E0
1.525790647E0,-6.131849766E0,3.399766445E0,1.939303398E0
1.527806647E0,-5.985803604E0,3.411737442E0,2.015917778E0
1.529822680E0,-5.830180645E0,3.442862034E0,2.063801765E0
1.531838746E0,-5.763142586E0,3.445256233E0,2.075772762E0
1.533854879E0,-5.631461620E0,3.466804028E0,2.059013367E0
1.535871012E0,-5.516540051E0,3.466804028E0,2.008735180E0
1.537886412E0,-5.451896667E0,3.476380825E0,1.987187386E0
1.539900045E0,-5.320215225E0,3.428496838E0,1.896207690E0
1.541913645E0,-5.212476254E0,3.308786631E0,1.771709204E0
1.543927178E0,-5.186140060E0,3.227383852E0,1.745373011E0
1.545940711E0,-5.176563263E0,3.059789658E0,1.740584612E0
1.547954244E0,-5.198111057E0,2.904166698E0,1.747767210E0
1.549967777E0,-5.245995045E0,2.782062292E0,1.728613615E0
1.551981277E0,-5.284302235E0,2.741360903E0,1.697489023E0
1.553994743E0,-5.351340294E0,2.726995707E0,1.680729628E0
1.556008209E0,-5.471050262E0,2.770091295E0,1.661576033E0
1.558021742E0,-5.516540051E0,2.801215887E0,1.673547029E0
1.560035308E0,-5.583577633E0,2.892195702E0,1.671152830E0
1.562048941E0,-5.626673222E0,2.971204281E0,1.628057122E0
1.564062541E0,-5.650615215E0,3.011905670E0,1.599326730E0
1.566076107E0,-5.684134007E0,3.117250681E0,1.537077546E0
1.568089707E0,-5.667374611E0,3.191470861E0,1.446097851E0
1.570103340E0,-5.676951408E0,3.227383852E0,1.395819545E0
1.572116940E0,-5.669768810E0,3.265691042E0,1.295263171E0
1.574130573E0,-5.679345608E0,3.248931646E0,1.154005170E0
1.576144206E0,-5.636250019E0,3.217807055E0,1.015141487E0
1.578157706E0,-5.602731228E0,3.186682463E0,9.481038451E-1
1.580171106E0,-5.542876244E0,3.150769472E0,7.852981687E-1
1.582185239E0,-5.413589478E0,3.208230257E0,5.937620401E-1
1.584198572E0,-5.336975098E0,3.205836058E0,5.243301988E-1
1.586211972E0,-5.181351662E0,3.131615877E0,3.926490843E-1
1.588225372E0,-5.083189487E0,3.028665066E0,2.561795712E-1
1.590238772E0,-5.052064896E0,2.959233284E0,1.819593310E-1
1.592252138E0,-4.994604111E0,2.813186884E0,6.703764945E-2
1.594265504E0,-4.970662117E0,2.693476915E0,-5.506663769E-2
1.596278904E0,-4.944325924E0,2.595314741E0,-1.819593310E-1
1.598290537E0,-4.934749126E0,2.545036316E0,-2.346317619E-1
1.600303903E0,-4.953902721E0,2.446874142E0,-3.280056417E-1
1.602317269E0,-4.965873718E0,2.403778553E0,-3.998316824E-1
1.604330635E0,-4.973056316E0,2.346317768E0,-4.237737060E-1
1.606343968E0,-5.016151905E0,2.264914751E0,-4.572925270E-1
1.608357268E0,-5.040093899E0,2.190694571E0,-5.027823448E-1
1.610370501E0,-5.040093899E0,2.149993181E0,-5.315127969E-1
1.612383701E0,-5.037699699E0,2.068590164E0,-5.985504389E-1
1.614396867E0,-5.035305500E0,2.027888775E0,-6.488286853E-1
1.616409967E0,-5.042488098E0,2.025494576E0,-6.775590777E-1
1.619340967E0,-4.996998310E0,2.042253971E0,-7.996633649E-1
1.621299967E0,-4.934749126E0,2.056619167E0,-8.355764151E-1
1.623311967E0,-4.898836136E0,2.094926596E0,-9.121908545E-1
1.625324967E0,-4.797980309E0,2.166752577E0,-9.433154464E-1
1.627337467E0,-4.661510944E0,2.257732153E0,-9.361328483E-1
1.629350133E0,-4.587290287E0,2.310404539E0,-9.050082564E-1
1.631362633E0,-4.417302132E0,2.451662540E0,-7.996633649E-1
1.633375033E0,-4.288015366E0,2.621650934E0,-6.655880809E-1
1.635387366E0,-4.206612587E0,2.688688517E0,-5.985504389E-1
1.637399794E0,-4.055777550E0,2.815581083E0,-4.788403511E-1
1.639412294E0,-3.909731388E0,2.954444885E0,-3.782838583E-1
1.641424849E0,-3.840299606E0,3.004723072E0,-3.399766386E-1
1.643437349E0,-3.706224203E0,3.093308687E0,-3.375824392E-1
1.645449803E0,-3.617638826E0,3.126827478E0,-3.687070608E-1
1.647462219E0,-3.581725836E0,3.107673883E0,-4.094084799E-1
1.649474603E0,-3.603273630E0,3.009511471E0,-4.548983276E-1
1.651486960E0,-3.699041605E0,2.856282711E0,-5.434837937E-1
1.653499293E0,-3.921702385E0,2.650381327E0,-6.440402865E-1
1.655511605E0,-4.065354347E0,2.506729126E0,-7.015010715E-1
1.657523957E0,-4.584896088E0,2.044648170E0,-9.433154464E-1
1.659536234E0,-4.781220913E0,1.886630893E0,-1.084573388E0
1.661548444E0,-4.987421513E0,1.726219416E0,-1.261744261E0
1.663560644E0,-5.430348873E0,1.434126854E0,-1.735796213E0
1.665590548E0,-5.940313816E0,1.235408068E0,-2.322375536E0
1.667619729E0,-6.462249756E0,1.122880578E0,-2.889801502E0
1.669648163E0,-6.728005886E0,1.103726983E0,-3.145981073E0
1.671675913E0,-7.254730225E0,1.048660398E0,-3.562572241E0
1.673703033E0,-7.822156429E0,1.010353088E0,-3.797203779E0
1.675729571E0,-8.131008148E0,9.720458984E-1,-3.866635799E0
1.677755645E0,-8.729558945E0,8.690952063E-1,-3.888183594E0
1.679781252E0,-9.323320389E0,7.445967197E-1,-3.837905407E0
1.681806493E0,-9.897929192E0,6.248866320E-1,-3.754108191E0
1.683831326E0,-1.023072338E1,5.602431893E-1,-3.708618402E0
1.685856159E0,-1.090109921E1,4.501099288E-1,-3.629609823E0
1.687881025E0,-1.162414837E1,3.806780577E-1,-3.596091032E0
1.689905891E0,-1.201919174E1,3.399766386E-1,-3.576937437E0
1.691930791E0,-1.290983486E1,2.633621991E-1,-3.541024208E0
1.693955724E0,-1.388906288E1,1.723825186E-1,-3.545812607E0
1.695980757E0,-1.439184570E1,1.675941199E-1,-3.579331636E0
1.698005790E0,-1.540968037E1,1.795651317E-1,-3.648763418E0
1.700059090E0,-1.648228264E1,1.987187415E-1,-3.634398222E0
1.702112423E0,-1.753573227E1,1.723825186E-1,-3.495534420E0
1.704165823E0,-1.857242203E1,8.619125932E-2,-3.177105665E0
1.706219289E0,-1.954686165E1,-3.591302410E-2,-2.736572504E0
1.708272789E0,-1.999218369E1,-1.149216816E-1,-2.482787132E0
1.710326322E0,-2.082057571E1,-2.753331959E-1,-1.884236693E0
1.712379855E0,-2.152686691E1,-4.525041282E-1,-1.206677675E0
1.714433455E0,-2.181177521E1,-5.602431893E-1,-8.475474119E-1
1.716487088E0,-2.221879005E1,-7.589619160E-1,-1.173158810E-1
1.718540721E0,-2.243187332E1,-9.121908545E-1,6.344634295E-1
1.720594387E0,-2.246060562E1,-9.768342972E-1,1.007958889E0
1.722648153E0,-2.238638496E1,-1.086967587E0,1.680729628E0
1.724701986E0,-2.210147476E1,-1.144428372E0,2.288856745E0
1.726743452E0,-2.190275574E1,-1.137245774E0,2.557007313E0
1.728784918E0,-2.138321304E1,-1.089361787E0,3.047818661E0
1.730826384E0,-2.080142212E1,-1.046266198E0,3.476380825E0
1.732867884E0,-2.017653656E1,-1.034295082E0,3.857059002E0
1.734909384E0,-1.987486649E1,-1.019929886E0,4.024652958E0
1.736950984E0,-1.928589249E1,-9.935936928E-1,4.240131378E0
1.738992550E0,-1.875438118E1,-9.720458984E-1,4.323928356E0
1.741034050E0,-1.850538254E1,-9.816226959E-1,4.323928356E0
1.743075450E0,-1.807682228E1,-9.816226959E-1,4.235342979E0
1.745117516E0,-1.773445129E1,-9.409212470E-1,4.079719543E0
1.747158949E0,-1.758361626E1,-9.193734527E-1,3.986345768E0
1.749200349E0,-1.730828285E1,-8.116343617E-1,3.785232782E0
1.751241749E0,-1.703534317E1,-6.703764796E-1,3.600879431E0
1.753283149E0,-1.689408493E1,-5.961562395E-1,3.497928619E0
1.755324549E0,-1.662593460E1,-4.453215301E-1,3.303998232E0
1.757365882E0,-1.632426643E1,-2.657563984E-1,3.129221678E0
1.759407248E0,-1.599625969E1,-8.858546615E-2,2.997540474E0
1.761420381E0,-1.583345413E1,-7.182605099E-3,2.925714493E0
1.763433514E0,-1.549347782E1,1.723825186E-1,2.801215887E0
1.765446647E0,-1.514631844E1,3.591302633E-1,2.705447912E0
1.767459813E0,-1.497872448E1,4.381389022E-1,2.662352324E0
1.769473013E0,-1.462647724E1,5.985504389E-1,2.573766708E0
1.771486213E0,-1.428650093E1,7.493851185E-1,2.494758129E0
1.773499479E0,-1.411411858E1,8.140285611E-1,2.470816135E0
1.775512745E0,-1.379329491E1,9.002198577E-1,2.420537949E0
1.777526011E0,-1.348923206E1,9.409212470E-1,2.370259762E0
1.779539277E0,-1.323784065E1,9.672574997E-1,2.334346771E0
1.781552543E0,-1.312052441E1,9.744400978E-1,2.312798738E0
1.783565776E0,-1.292898846E1,9.816226959E-1,2.281674147E0
1.785578976E0,-1.276139450E1,9.672574997E-1,2.255337954E0
1.787592209E0,-1.268956852E1,9.864110947E-1,2.212242365E0
1.789605409E0,-1.257464695E1,9.935936928E-1,2.166752577E0
1.791618642E0,-1.248127270E1,1.017535686E0,2.142810583E0
1.793631942E0,-1.243817711E1,1.039083481E0,2.118868589E0
1.795645242E0,-1.235198593E1,1.098938584E0,2.061407566E0
1.797658508E0,-1.228015995E1,1.154005170E0,2.015917778E0
1.799671774E0,-1.227297688E1,1.165976286E0,1.982398987E0
1.801685107E0,-1.228734207E1,1.211466074E0,1.932120800E0
1.803698473E0,-1.228494835E1,1.292868972E0,1.896207690E0
1.805711206E0,-1.228734207E1,1.312022567E0,1.869871497E0
1.807724606E0,-1.229691887E1,1.288080573E0,1.807622313E0
1.809738072E0,-1.235198593E1,1.266532660E0,1.728613615E0
1.811751572E0,-1.244296551E1,1.244984865E0,1.697489023E0
1.813765072E0,-1.251000309E1,1.161187768E0,1.625662923E0
1.815778638E0,-1.264647293E1,1.077390790E0,1.551442742E0
1.817792238E0,-1.279012489E1,1.015141487E0,1.474828243E0
1.819805871E0,-1.285955620E1,9.911994934E-1,1.429338455E0
1.821819404E0,-1.302475643E1,9.672574997E-1,1.345541358E0
1.823832870E0,-1.318277359E1,9.600749016E-1,1.237802267E0
1.825846970E0,-1.326178265E1,9.576807022E-1,1.185129881E0
1.827860336E0,-1.343416500E1,9.241618514E-1,1.029506683E0
1.829873702E0,-1.362330723E1,8.643068075E-1,8.595184088E-1
1.831887102E0,-1.371668053E1,8.403648138E-1,7.733271718E-1
1.833900468E0,-1.393934155E1,7.709329724E-1,5.793967843E-1
1.835913834E0,-1.415960789E1,6.991068721E-1,3.950432837E-1
1.837927200E0,-1.427931786E1,6.607996821E-1,3.040636182E-1
1.839940566E0,-1.461690044E1,5.195417404E-1,9.097966552E-2
1.841953932E0,-1.471536255E1,4.836287498E-1,4.070143029E-2
1.843967332E0,-1.489492702E1,4.333505034E-1,-6.224924326E-2
1.845980732E0,-1.496196461E1,4.070142806E-1,-1.101332754E-1
1.847994098E0,-1.504576206E1,3.854664862E-1,-2.059013397E-1
1.850007498E0,-1.507209778E1,4.309563041E-1,-2.825157940E-1
1.852020898E0,-1.507449245E1,4.716577232E-1,-3.280056417E-1
1.854034264E0,-1.505055046E1,6.033388376E-1,-4.237737060E-1
1.856047697E0,-1.502900219E1,7.565677166E-1,-5.027823448E-1
1.858061097E0,-1.501703167E1,8.331822157E-1,-5.315127969E-1
1.860074497E0,-1.498590660E1,9.816226959E-1,-5.841852427E-1
1.862116097E0,-1.498830128E1,1.110909581E0,-5.985504389E-1
1.864157730E0,-1.501703167E1,1.201889277E0,-5.793967843E-1
1.866199363E0,-1.508406925E1,1.264138460E0,-4.908113480E-1
1.868240996E0,-1.522293282E1,1.304839969E0,-3.711012602E-1
1.870282596E0,-1.529954720E1,1.331176162E0,-2.920926213E-1
1.872324196E0,-1.546714115E1,1.335964561E0,-1.053448766E-1
1.874365829E0,-1.565628338E1,1.319205165E0,9.816227108E-2
1.876407395E0,-1.575923443E1,1.309628367E0,1.987187415E-1
1.878448928E0,-1.599865437E1,1.297657371E0,4.094084799E-1
1.880490394E0,-1.624525642E1,1.237802267E0,6.703764796E-1
1.882531960E0,-1.636017799E1,1.199495077E0,8.164227605E-1
1.884573560E0,-1.663790703E1,1.113303781E0,1.108515382E0
1.886614493E0,-1.690605736E1,1.012747288E0,1.434126854E0
1.888656159E0,-1.702576637E1,9.600749016E-1,1.601720929E0
1.890697792E0,-1.723166847E1,8.403648138E-1,1.948880196E0
1.892739392E0,-1.739926147E1,7.182605267E-1,2.293645144E0
1.894780992E0,-1.751657867E1,5.913678408E-1,2.592920542E0
1.896822558E0,-1.755488586E1,5.315127969E-1,2.741360903E0
1.898864124E0,-1.759079933E1,4.118026793E-1,2.987963676E0
1.900905690E0,-1.758361626E1,2.561795712E-1,3.160346270E0
1.902947223E0,-1.756206894E1,1.675941199E-1,3.222595453E0
1.904988689E0,-1.748784828E1,-2.154781483E-2,3.287238836E0
1.907030155E0,-1.737532043E1,-2.585737705E-1,3.232172251E0
1.909083855E0,-1.721730232E1,-4.788403511E-1,3.143586874E0
1.911137555E0,-1.712392998E1,-5.746083856E-1,3.102885485E0
1.913191355E0,-1.687732697E1,-7.733271718E-1,2.964021683E0
1.915245088E0,-1.655650330E1,-9.337386489E-1,2.786850691E0
1.917298854E0,-1.637454414E1,-9.840168953E-1,2.683900118E0
1.919352620E0,-1.596752930E1,-1.041477680E0,2.487575531E0
1.921406420E0,-1.552699661E1,-1.055842996E0,2.250549555E0
1.923432053E0,-1.508646393E1,-1.029506683E0,1.994369984E0
1.925457653E0,-1.487816811E1,-1.007958889E0,1.838746905E0
1.927483219E0,-1.445888329E1,-9.481038451E-1,1.508347034E0
1.929508752E0,-1.406623459E1,-8.810662031E-1,1.163581967E0
1.931534318E0,-1.387948608E1,-8.355764151E-1,9.864110947E-1
1.933559851E0,-1.349162579E1,-7.422025204E-1,6.320692301E-1
1.935585317E0,-1.312291908E1,-6.440402865E-1,3.208230138E-1
1.937610783E0,-1.294574833E1,-5.937620401E-1,1.867477298E-1
1.939636249E0,-1.261774254E1,-4.764461517E-1,-5.506663769E-2
1.941661782E0,-1.232564926E1,-3.639186621E-1,-2.178723514E-1
1.943716548E0,-1.203595161E1,-2.609679997E-1,-3.375824392E-1
1.945771381E0,-1.180850220E1,-1.963245422E-1,-4.141969085E-1
1.947826247E0,-1.162893677E1,-1.580173075E-1,-4.740519226E-1
1.949881047E0,-1.154514027E1,-1.532289088E-1,-4.860229492E-1
1.951935847E0,-1.143740082E1,-1.556231081E-1,-4.884171486E-1
1.953990680E0,-1.137036324E1,-1.580173075E-1,-5.003881454E-1
1.956045546E0,-1.135360336E1,-1.651999205E-1,-4.908113480E-1
1.958100412E0,-1.139430523E1,-1.987187415E-1,-4.453215301E-1
1.960155312E0,-1.150683308E1,-2.082955539E-1,-3.519476354E-1
1.962210278E0,-1.168639755E1,-2.106897533E-1,-2.250549644E-1
1.964265311E0,-1.179413700E1,-2.106897533E-1,-1.436520964E-1
1.966320411E0,-1.199285603E1,-2.537853718E-1,-2.394201700E-3
1.968375511E0,-1.220115089E1,-2.825157940E-1,7.900865376E-2
1.970418411E0,-1.229691887E1,-3.399766386E-1,2.992752194E-1
1.972461311E0,-1.243578243E1,-3.902548850E-1,5.027823448E-1
1.974504144E0,-1.248366737E1,-4.525041282E-1,7.062895298E-1
1.976547044E0,-1.247648430E1,-4.860229492E-1,7.972691655E-1
1.978589910E0,-1.241184044E1,-5.770025849E-1,9.289502501E-1
1.980632810E0,-1.225142956E1,-6.631938815E-1,1.060631394E0
1.982675743E0,-1.215326691E1,-7.038952708E-1,1.149216771E0
1.984718543E0,-1.190187550E1,-7.757213712E-1,1.352723956E0
1.986761309E0,-1.159781265E1,-8.690952063E-1,1.496376038E0
1.988804042E0,-1.145176601E1,-9.121908545E-1,1.549048543E0
1.990846842E0,-1.110939503E1,-1.029506683E0,1.647210717E0
1.992889608E0,-1.076463032E1,-1.144428372E0,1.697489023E0
1.994932441E0,-1.057069969E1,-1.197100878E0,1.697489023E0
1.996975341E0,-1.017565632E1,-1.295263171E0,1.604115129E0
1.999018307E0,-9.818920135E0,-1.405396342E0,1.319205165E0
2.001061273E0,-9.426271439E0,-1.472434044E0,1.086967587E0
2.003104206E0,-9.232340813E0,-1.470039845E0,1.060631394E0
2.005117906E0,-8.832509041E0,-1.414973259E0,9.744400978E-1
2.007131539E0,-8.439860344E0,-1.367089152E0,7.781155705E-1
2.009145172E0,-8.255506516E0,-1.367089152E0,6.105214357E-1
2.011158805E0,-7.872434616E0,-1.374271750E0,2.178723514E-1
2.013172438E0,-7.477391243E0,-1.335964561E0,-1.340752989E-1
2.015186038E0,-7.285854816E0,-1.314416766E0,-3.232172430E-1
2.017199604E0,-6.924330711E0,-1.300051570E0,-6.823474765E-1
2.019213170E0,-6.613084316E0,-1.338358760E0,-1.029506683E0
2.021226703E0,-6.483797550E0,-1.388636947E0,-1.197100878E0
2.023240136E0,-6.208464146E0,-1.707065821E0,-1.647210717E0
2.025255302E0,-6.155791759E0,-1.865083098E0,-1.764526606E0
2.027268668E0,-6.036081791E0,-2.190694571E0,-1.965639591E0
2.029282034E0,-5.985803604E0,-2.343923569E0,-2.068590164E0
2.031295400E0,-5.890035629E0,-2.592920542E0,-2.257732153E0
2.033308733E0,-5.763142586E0,-2.839523315E0,-2.355894566E0
2.035322033E0,-5.684134007E0,-2.952050686E0,-2.401384354E0
2.037335333E0,-5.511751652E0,-3.150769472E0,-2.482787132E0
2.039348599E0,-5.260360241E0,-3.272873640E0,-2.557007313E0
2.041361865E0,-5.109525681E0,-3.347094059E0,-2.602497339E0
2.043375098E0,-4.759673119E0,-3.485957623E0,-2.669534922E0
2.045388431E0,-4.288015366E0,-3.605667830E0,-2.722207308E0
2.047401831E0,-4.022258759E0,-3.694253206E0,-2.731784105E0
2.049415297E0,-3.469198227E0,-3.873818398E0,-2.746149302E0
2.051428697E0,-2.832340717E0,-4.106055737E0,-2.758120298E0
2.053442097E0,-2.075772762E0,-4.410119534E0,-2.801215887E0
2.055455463E0,-1.628057122E0,-4.558559895E0,-2.820369720E0
2.057468796E0,-6.200982332E-1,-4.872200489E0,-2.925714493E0
2.059482062E0,5.003881454E-1,-5.195716858E0,-3.119644880E0
2.061495295E0,1.098938584E0,-5.368099689E0,-3.258508444E0
2.063508561E0,2.418143749E0,-5.770325184E0,-3.684676409E0
2.065521761E0,3.916913986E0,-6.246771336E0,-4.249708176E0
2.067534994E0,4.723760128E0,-6.500556946E0,-4.565742493E0
2.069548994E0,6.543652534E0,-7.022492886E0,-5.214870453E0
2.071562194E0,8.696040154E0,-7.474997044E0,-5.818209171E0
2.073575427E0,9.926659584E0,-7.647379398E0,-6.100725174E0
2.075588660E0,1.270153904E1,-7.819762230E0,-6.668150902E0
2.077601893E0,1.601301956E1,-7.702445984E0,-7.211634636E0
2.079615159E0,1.971924400E1,-7.518092632E0,-7.822156429E0
2.081628459E0,2.159629822E1,-6.972214699E0,-8.111854553E0
2.083641792E0,2.685186958E1,-5.291484833E0,-8.485349655E0
2.085653358E0,2.872413635E1,-4.675876141E0,-8.669703484E0
2.087666691E0,3.053654671E1,-4.232948780E0,-8.741529465E0
2.089680024E0,3.395307159E1,-3.612850428E0,-8.724770546E0
2.091693324E0,3.735792542E1,-3.229778051E0,-8.595483780E0
2.093706657E0,3.900513840E1,-3.119644880E0,-8.511686325E0
2.095720023E0,4.221097183E1,-2.947262287E0,-8.150161743E0
2.097733389E0,4.530218506E1,-2.760514498E0,-7.537246227E0
2.099746755E0,4.687517548E1,-2.645592928E0,-7.139808655E0
2.101760055E0,4.984159470E1,-2.353500366E0,-6.354510784E0
2.103773355E0,5.268111801E1,-2.020706177E0,-5.547664642E0
2.105814955E0,5.507082748E1,-1.683123827E0,-5.030517101E0
2.107856555E0,5.694548798E1,-1.252167463E0,-4.556165695E0
2.109898121E0,5.832694244E1,-9.935936928E-1,-4.314351559E0
2.111939687E0,5.879381180E1,-8.762778044E-1,-4.309563160E0
2.113981253E0,5.918406677E1,-4.716577232E-1,-4.513070107E0
2.116022786E0,5.926307678E1,-7.661445439E-2,-4.876988888E0
2.118064352E0,5.924631500E1,5.506663769E-2,-5.169380665E0
2.120105952E0,5.902844620E1,2.035071403E-1,-6.031293392E0
2.122147652E0,5.850890350E1,2.298433632E-1,-7.158962250E0
2.124189318E0,5.816413879E1,1.867477298E-1,-7.800608635E0
2.126231084E0,5.725194550E1,-1.364694983E-1,-9.155726433E0
2.128272884E0,5.576514816E1,-1.127668977E0,-1.040789413E1
2.130313917E0,5.339219284E1,-1.963245392E0,-1.130571938E1
2.132355817E0,5.185272217E1,-4.280832767E0,-1.156189919E1
2.134397717E0,4.809143066E1,-7.295432091E0,-1.178216553E1
2.136439650E0,4.338413239E1,-1.067365074E1,-1.139909363E1
2.138481583E0,4.065474319E1,-1.240944672E1,-1.094658947E1
2.140523516E0,3.434601974E1,-1.584063721E1,-9.557952881E0
2.142565449E0,2.677525520E1,-1.931941223E1,-7.745541573E0
2.144607415E0,1.803133202E1,-2.287480164E1,-5.827786446E0
2.146649381E0,1.319474506E1,-2.471145439E1,-4.850652695E0
2.148691281E0,2.568978310E0,-2.852541733E1,-3.007117271E0
2.150733147E0,-3.177105665E0,-3.045753670E1,-2.202665567E0
2.152788313E0,-1.555333233E1,-3.429065323E1,-6.799532771E-1
2.154843546E0,-2.868343353E1,-3.792774582E1,8.786720037E-1
2.156898779E0,-4.384860611E1,-4.186141968E1,2.580949545E0
2.158953979E0,-5.916730881E1,-4.368101120E1,4.129997730E0
2.161009212E0,-6.604854584E1,-4.322611618E1,4.546588898E0
2.163064478E0,-7.504864502E1,-4.239293289E1,5.765536785E0
2.165119744E0,-7.757453156E1,-4.066910553E1,8.681674957E0
2.167146710E0,-7.799591064E1,-3.972579193E1,1.017326260E1
2.169173643E0,-7.831194305E1,-3.777691269E1,1.324502277E1
2.171200609E0,-7.839095306E1,-3.542580414E1,1.613512421E1
2.173227609E0,-7.840531921E1,-3.409672546E1,1.735377312E1
2.175254642E0,-7.841489410E1,-3.168815804E1,2.009513283E1
2.177281675E0,-7.841728973E1,-3.022290611E1,2.350926590E1
2.179308675E0,-7.841728973E1,-2.886299896E1,2.523099518E1
2.181335675E0,-7.841728973E1,-2.403120041E1,2.727085495E1
2.183362641E0,-7.841728973E1,-1.738250351E1,2.728522110E1
2.185389607E0,-7.841728973E1,-1.163372517E1,2.637063599E1
2.187444907E0,-7.841728973E1,-8.583512306E0,2.488144112E1
2.189500240E0,-7.841728973E1,-7.956231594E0,2.304239655E1
2.191555573E0,-7.818505096E1,-8.181286812E0,2.204640770E1
2.193610839E0,-7.406941986E1,-8.803778648E0,1.997063446E1
2.196476967E0,-6.635021210E1,-9.012074471E0,1.773684502E1
2.198490967E0,-6.203795624E1,-8.834903717E0,1.655171585E1
2.200502967E0,-5.337303925E1,-7.992144585E0,1.402553272E1
2.202515467E0,-4.517050552E1,-6.761524677E0,1.125304699E1
2.204528133E0,-4.135624313E1,-6.098330975E0,9.888352394E0
2.206541133E0,-3.115664482E1,-4.220977783E0,5.918766022E0
2.208553533E0,-2.816628647E1,-3.655946016E0,4.587290287E0
2.210566033E0,-2.274551392E1,-2.595314741E0,1.927332401E0
2.212578461E0,-2.030103493E1,-2.078166962E0,5.937620401E-1
2.214590836E0,-1.596034718E1,-1.065419793E0,-2.176329374E0
2.216603280E0,-1.236635113E1,-6.464344263E-2,-4.855441093E0
2.218615880E0,-1.084842682E1,4.429273009E-1,-6.091148376E0
2.220628516E0,-8.399158478E0,1.422155857E0,-8.214805603E0
2.222641266E0,-6.629843712E0,2.281674147E0,-9.830891609E0
2.224654035E0,-5.973832607E0,2.679111719E0,-1.041986465E1
2.226666892E0,-5.078401089E0,3.323152065E0,-1.131769085E1
2.228679625E0,-4.661510944E0,3.737348795E0,-1.191624069E1
2.230692312E0,-4.572925091E0,3.837905407E0,-1.210538292E1
2.232704900E0,-4.548983097E0,3.847482204E0,-1.219875717E1
2.234717566E0,-4.668693542E0,3.684676409E0,-1.195933723E1
2.236730250E0,-4.886565685E0,3.361459255E0,-1.148289108E1
2.238742950E0,-5.052064896E0,3.148375273E0,-1.114770222E1
2.240755759E0,-5.523722649E0,2.631227732E0,-1.029057789E1
2.242768577E0,-6.122272968E0,2.070984364E0,-9.239523888E0
2.244781403E0,-6.450278759E0,1.793257117E0,-8.655338287E0
2.246794236E0,-7.151779652E0,1.264138460E0,-7.412747860E0
2.248807036E0,-7.831733227E0,8.595184088E-1,-6.158185959E0
2.250819843E0,-8.131008148E0,6.967126727E-1,-5.521328449E0
2.252832657E0,-8.722375870E0,4.453215301E-1,-4.278438568E0
2.254845478E0,-9.201216698E0,2.801215947E-1,-3.090914488E0
2.256858271E0,-9.402329445E0,2.154781520E-1,-2.528276920E0
2.258871104E0,-9.830891609E0,4.309562966E-2,-1.489193439E0
2.260883970E0,-1.012298393E1,-9.576806426E-2,-5.793967843E-1
2.262896870E0,-1.030254936E1,-1.771709323E-1,2.106897533E-1
2.264909770E0,-1.036719227E1,-3.112462163E-1,5.602431893E-1
2.266922670E0,-1.044380665E1,-4.548983276E-1,1.376665950E0
2.268935603E0,-1.041747093E1,-4.812345505E-1,1.572990537E0
2.270948536E0,-1.035522175E1,-4.979939461E-1,1.726219416E0
2.272961469E0,-1.018762779E1,-4.860229492E-1,1.910573006E0
2.274974402E0,-9.979331970E0,-4.668693244E-1,1.999158382E0
2.276987302E0,-9.878775597E0,-4.548983276E-1,2.011129379E0
2.279000135E0,-9.672874451E0,-4.501099288E-1,1.987187386E0
2.281012935E0,-9.510068893E0,-4.261679053E-1,1.912967205E0
2.283025735E0,-9.440636635E0,-3.950432837E-1,1.860294700E0
2.285038535E0,-9.330503464E0,-3.471592367E-1,1.747767210E0
2.287051301E0,-9.208398819E0,-3.327940404E-1,1.635239720E0
2.289064101E0,-9.174880028E0,-3.256114423E-1,1.587355733E0
2.291076934E0,-9.107842445E0,-2.849099934E-1,1.486799240E0
2.293089834E0,-9.014469147E0,-2.705447972E-1,1.381454349E0
2.295102667E0,-8.930671692E0,-3.040636182E-1,1.206677675E0
2.297115433E0,-8.880393028E0,-3.208230138E-1,1.101332784E0
2.299128199E0,-8.741529465E0,-3.663128614E-1,8.667010069E-1
2.301140865E0,-8.583512306E0,-4.525041282E-1,6.033388376E-1
2.303153498E0,-8.487744331E0,-4.955997467E-1,4.764461517E-1
2.305166098E0,-8.269871712E0,-5.698199868E-1,2.370259613E-1
2.307178631E0,-7.992144585E0,-6.296750307E-1,-2.394201607E-2
2.309191097E0,-7.853281021E0,-6.488286853E-1,-1.316810995E-1
2.311203497E0,-7.568370819E0,-6.871358752E-1,-3.806780577E-1
2.313215797E0,-7.264307022E0,-6.943184733E-1,-6.009446383E-1
2.315228130E0,-7.118260860E0,-6.943184733E-1,-7.134721279E-1
2.317240463E0,-6.838139534E0,-6.607996821E-1,-8.810662031E-1
2.319252763E0,-6.591536522E0,-6.009446383E-1,-1.000776291E0
2.321265029E0,-6.388029575E0,-5.003881454E-1,-1.084573388E0
2.323277262E0,-6.289866924E0,-4.405331016E-1,-1.110909581E0
2.325289462E0,-6.105513573E0,-3.112462163E-1,-1.151610970E0
2.327301628E0,-5.964255810E0,-1.628057212E-1,-1.204283476E0
2.329315394E0,-5.899612427E0,-9.337386489E-2,-1.216254473E0
2.331329160E0,-5.813420773E0,-4.788403399E-3,-1.211466074E0
2.333342926E0,-5.739200592E0,8.140286058E-2,-1.139639974E0
2.335356726E0,-5.720046997E0,1.053448766E-1,-1.103726983E0
2.337370526E0,-5.672163010E0,1.149216816E-1,-1.039083481E0
2.339384359E0,-5.688922405E0,1.053448766E-1,-9.720458984E-1
2.341398192E0,-5.722441196E0,9.576806426E-2,-9.552865028E-1
2.343412025E0,-5.839757442E0,5.506663769E-2,-9.672574997E-1
2.345425825E0,-6.021716595E0,-1.436521020E-2,-9.552865028E-1
2.347439625E0,-6.265924931E0,-1.053448766E-1,-9.409212470E-1
2.349481658E0,-6.534075737E0,-1.795651317E-1,-8.954314590E-1
2.351523691E0,-6.816591740E0,-2.705447972E-1,-8.595184088E-1
2.353565724E0,-6.957849503E0,-3.064578176E-1,-8.188169599E-1
2.355607824E0,-7.197269440E0,-3.495534360E-1,-7.445967197E-1
2.357649957E0,-7.386411667E0,-3.639186621E-1,-7.038952708E-1
2.359692090E0,-7.463026047E0,-3.567360640E-1,-6.967126727E-1
2.361734256E0,-7.587524414E0,-3.280056417E-1,-6.991068721E-1
2.363776489E0,-7.644985199E0,-2.968810201E-1,-7.374141216E-1
2.365818755E0,-7.654561996E0,-2.849099934E-1,-7.661445141E-1
2.367861121E0,-7.616254807E0,-2.681505978E-1,-8.236053586E-1
2.369903587E0,-7.479785442E0,-2.705447972E-1,-8.858546019E-1
2.371946120E0,-7.278672218E0,-2.370259613E-1,-9.361328483E-1
2.373988753E0,-7.139808655E0,-2.178723514E-1,-9.457096457E-1
2.376031386E0,-6.773495674E0,-2.082955539E-1,-9.552865028E-1
2.378074052E0,-6.347328186E0,-2.250549644E-1,-9.528923035E-1
2.380116685E0,-6.129455566E0,-2.418143749E-1,-9.528923035E-1
2.382159318E0,-5.669768810E0,-2.418143749E-1,-9.672574997E-1
2.384201951E0,-5.147832870E0,-2.370259613E-1,-9.911994934E-1
2.386244584E0,-4.886565685E0,-2.346317619E-1,-1.005564690E0
2.388287150E0,-4.082113743E0,-1.843535304E-1,-1.060631394E0
2.390328083E0,-3.821146011E0,-1.628057212E-1,-1.074996591E0
2.392368949E0,-3.586514235E0,-1.388636976E-1,-1.108515382E0
2.394409782E0,-3.105279684E0,-1.532289088E-1,-1.189918280E0
2.396463415E0,-2.676717520E0,-2.226607651E-1,-1.316810966E0
2.398517148E0,-2.329558372E0,-3.711012602E-1,-1.465251446E0
2.400570848E0,-2.054224968E0,-6.440402865E-1,-1.572990537E0
2.402624581E0,-1.939303398E0,-8.068459630E-1,-1.628057122E0
2.404678314E0,-1.709460020E0,-1.149216771E0,-1.726219416E0
2.406732080E0,-1.438915253E0,-1.541865945E0,-1.833958507E0
2.408785846E0,-1.283292055E0,-1.731007814E0,-1.903390408E0
2.410811412E0,-9.457096457E-1,-2.066195965E0,-2.056619167E0
2.412837012E0,-5.746083856E-1,-2.336740971E0,-2.226607561E0
2.414862612E0,-3.806780577E-1,-2.454056740E0,-2.308010340E0
2.416888212E0,3.351882473E-2,-2.652775526E0,-2.489969730E0
2.418913878E0,5.051765442E-1,-2.882618904E0,-2.693476915E0
2.420939511E0,7.565677166E-1,-3.007117271E0,-2.794033289E0
2.422965111E0,1.379060149E0,-3.265691042E0,-3.007117271E0
2.424990677E0,2.173935175E0,-3.524264812E0,-3.227383852E0
2.427016243E0,3.217807055E0,-3.744531393E0,-3.442862034E0
2.429041776E0,3.864241600E0,-3.806780815E0,-3.529053211E0
2.431095542E0,6.368875980E0,-3.730166197E0,-3.878606796E0
2.433149342E0,7.393594265E0,-3.586514235E0,-4.070142746E0
2.435203175E0,9.694421768E0,-3.213018656E0,-4.537012100E0
2.437256975E0,1.232564926E1,-2.767697096E0,-5.078401089E0
2.439310775E0,1.371189213E1,-2.561795712E0,-5.408801079E0
2.441364608E0,1.668818474E1,-2.133233786E0,-6.148609161E0
2.443418474E0,1.986050224E1,-1.800439715E0,-6.998550892E0
2.445472340E0,2.145982933E1,-1.673547029E0,-7.467814445E0
2.447526240E0,2.474257851E1,-1.465251446E0,-8.502109528E0
2.449580240E0,2.958604813E1,-1.312022567E0,-9.869198799E0
2.451634306E0,3.116382790E1,-1.134851575E0,-1.023311710E1
2.453688439E0,3.272005844E1,-1.003170490E0,-1.054436398E1
2.455742639E0,3.575859833E1,-7.062895298E-1,-1.104235744E1
2.457784105E0,3.867234421E1,-2.705447972E-1,-1.129135418E1
2.459825538E0,4.007773972E1,-1.675941236E-2,-1.134642124E1
2.461867071E0,4.273051453E1,5.530605912E-1,-1.129135418E1
2.463908671E0,4.508192062E1,1.240196466E0,-1.099926186E1
2.465950304E0,4.610903168E1,1.623268723E0,-1.077181244E1
2.467991970E0,4.783285904E1,2.415749550E0,-1.013016701E1
2.470033670E0,4.909939194E1,3.191470861E0,-9.261071205E0
2.472075303E0,4.956386566E1,3.552995205E0,-8.767866135E0
2.474116903E0,5.026297379E1,4.139574528E0,-7.771877766E0
2.476158469E0,5.076335907E1,4.522646904E0,-6.818985939E0
2.478200035E0,5.111291504E1,4.630385876E0,-5.957073212E0
2.480241568E0,5.120149994E1,4.623203278E0,-5.554847240E0
2.482283168E0,5.114882660E1,4.321534157E0,-4.786009312E0
2.484324768E0,5.069871902E1,3.653551817E0,-4.077325344E0
2.486366368E0,5.023902893E1,3.196259260E0,-3.749319792E0
2.488407968E0,4.877856827E1,1.989581585E0,-3.074155092E0
2.490449601E0,4.645140457E1,2.944868207E-1,-2.353500366E0
2.492463001E0,4.495263290E1,-7.541735172E-1,-1.975216389E0
2.494476334E0,4.130356979E1,-3.229778051E0,-1.125274777E0
2.496489667E0,3.676416397E1,-6.112696171E0,-7.661445439E-2
2.498503000E0,3.413263702E1,-7.676109791E0,5.123591423E-1
2.500516366E0,2.807051849E1,-1.103278065E1,1.711854219E0
2.502529732E0,2.067692375E1,-1.465041924E1,2.767697096E0
2.504543132E0,1.187314510E1,-1.654692650E1,3.591302633E0
2.506556532E0,6.945878506E0,-2.044229317E1,3.890577793E0
2.508569898E0,-3.945644379E0,-2.430653381E1,4.455609322E0
2.510583231E0,-1.624525642E1,-2.796756744E1,5.178957462E0
2.512598431E0,-2.279339790E1,-2.958126068E1,5.717652798E0
2.514611764E0,-3.718554306E1,-3.277273178E1,7.362469673E0
2.516625064E0,-5.334909821E1,-3.565564728E1,9.615413666E0
2.518638297E0,-6.184881210E1,-3.680725861E1,1.113333702E1
2.520651397E0,-7.378450775E1,-3.820068359E1,1.491168690E1
2.522664430E0,-7.725849152E1,-3.818632126E1,1.924279785E1
2.524677363E0,-7.783789062E1,-3.747045517E1,2.135687828E1
2.526690263E0,-7.827363586E1,-3.445375824E1,2.470905876E1
2.528703163E0,-7.838137817E1,-2.932268524E1,2.671540070E1
2.530716063E0,-7.840771484E1,-2.619825363E1,2.747915077E1
2.532729029E0,-7.841249847E1,-1.998739433E1,2.748154449E1
2.534741995E0,-7.841728973E1,-1.530673027E1,2.700270462E1
2.536754995E0,-7.841728973E1,-1.283322048E1,2.604502296E1
2.538767961E0,-7.841728973E1,-1.219396877E1,2.533873367E1
2.540780894E0,-7.841728973E1,-1.163133144E1,2.330336380E1
2.542793760E0,-7.841728973E1,-1.131050777E1,2.079663467E1
2.544806660E0,-7.841728973E1,-1.112136650E1,1.939842033E1
2.546819560E0,-7.841728973E1,-1.067843914E1,1.633623695E1
2.548832460E0,-7.841728973E1,-1.019002151E1,1.339346313E1
2.550845326E0,-7.812040710E1,-9.974543571E0,1.206228733E1
2.552858126E0,-7.318087006E1,-9.486125946E0,9.531616211E0
2.554870892E0,-6.457611084E1,-8.832509041E0,7.024887085E0
2.556883558E0,-6.007471085E1,-8.459013939E0,5.760748386E0
2.558896258E0,-5.148162079E1,-7.618649006E0,3.303998232E0
2.560908958E0,-4.381987762E1,-6.842927933E0,9.600749016E-1
2.562921691E0,-3.717117691E1,-6.182127953E0,-1.252167463E0
2.564934424E0,-3.418052292E1,-5.904400826E0,-2.303221941E0
2.566947190E0,-2.884384537E1,-5.420772076E0,-4.321534157E0
2.568959990E0,-2.424428558E1,-4.956296921E0,-6.143820763E0
2.570972790E0,-2.022920799E1,-4.527435303E0,-7.633014202E0
2.572983723E0,-1.840003777E1,-4.369418144E0,-8.202834129E0
2.574996556E0,-1.469112110E1,-4.381389141E0,-9.433453560E0
2.577009422E0,-1.273745251E1,-4.541800499E0,-1.014692593E1
2.579022288E0,-8.676886559E0,-5.061641693E0,-1.137275696E1
2.581035254E0,-4.422090530E0,-6.021716595E0,-1.178934860E1
2.583048187E0,-2.262520552E0,-6.529287338E0,-1.197849083E1
2.585061187E0,2.214636564E0,-7.024887085E0,-1.257225227E1
2.587074120E0,6.998550892E0,-7.046434879E0,-1.390342808E1
2.589086986E0,1.221791077E1,-6.596324921E0,-1.521335602E1
2.591099852E0,1.495478249E1,-6.282684326E0,-1.579275322E1
2.593141318E0,2.298254013E1,-5.298667431E0,-1.708801651E1
2.595182818E0,2.575771904E1,-4.929960728E0,-1.724842834E1
2.597224351E0,3.096510887E1,-4.340687752E0,-1.710477638E1
2.599265884E0,3.542819977E1,-3.881000996E0,-1.641524506E1
2.601307484E0,3.750876236E1,-3.660734415E0,-1.584542561E1
2.603349117E0,4.128441620E1,-3.153163671E0,-1.438466263E1
2.605390750E0,4.464617538E1,-2.530671120E0,-1.255788708E1
2.607432383E0,4.619282913E1,-2.193088770E0,-1.153556347E1
2.609474116E0,4.903474808E1,-1.556231141E0,-9.399934769E0
2.611515882E0,5.149119949E1,-1.053448796E0,-7.065588474E0
2.613557682E0,5.356457520E1,-8.283938169E-1,-4.766855717E0
2.615599582E0,5.451058578E1,-7.757213712E-1,-3.730166197E0
2.617641548E0,5.627032471E1,-7.254431248E-1,-2.061407566E0
2.619683481E0,5.784570694E1,-6.368576288E-1,-9.720458984E-1
2.621725414E0,5.859030533E1,-5.506663918E-1,-6.344634295E-1
2.623767314E0,5.996218491E1,-2.849099934E-1,-3.232172430E-1
2.625809214E0,6.111858368E1,1.651999205E-1,-5.075707436E-1
2.627851114E0,6.153038406E1,4.285621047E-1,-7.230489254E-1
2.629893014E0,6.182965851E1,9.481038451E-1,-1.331176162E0
2.631934947E0,6.133884811E1,1.326387763E0,-1.970427990E0
2.633976847E0,6.073551178E1,1.405396342E0,-2.281674147E0
2.636018680E0,5.883690643E1,1.189918280E0,-2.882618904E0
2.638060513E0,5.621525574E1,4.141969085E-1,-3.531447411E0
2.640114546E0,5.316474533E1,-7.757213712E-1,-4.139574528E0
2.642168646E0,4.987032318E1,-2.229001760E0,-4.527435303E0
2.644222779E0,4.818241119E1,-3.038241863E0,-4.690241337E0
2.646276879E0,4.485207748E1,-4.833893299E0,-5.023334503E0
2.648331012E0,4.175368118E1,-6.696881294E0,-5.152621269E0
2.650385212E0,4.028842926E1,-7.606678009E0,-5.128679276E0
2.652439378E0,3.751354980E1,-9.316138268E0,-4.999392509E0
2.654464911E0,3.495654297E1,-1.086279202E1,-4.797980309E0
2.656490377E0,3.370407486E1,-1.157626438E1,-4.678270340E0
2.658515843E0,3.110157776E1,-1.299363232E1,-4.386177540E0
2.660541309E0,2.791728973E1,-1.463366032E1,-3.940855980E0
2.662566709E0,2.594207382E1,-1.559403419E1,-3.603273630E0
2.664592109E0,2.099535370E1,-1.783740044E1,-2.731784105E0
2.666617509E0,1.435832691E1,-2.036807251E1,-1.630451322E0
2.668642909E0,5.851728439E0,-2.173516083E1,-4.022258818E-1
2.670668209E0,9.600749016E-1,-2.459892654E1,2.130839527E-1
2.672693475E0,-9.883563995E0,-2.756773567E1,1.431732655E0
2.674746975E0,-2.186923599E1,-3.047908592E1,2.695871115E0
2.676800475E0,-3.450882721E1,-3.323480988E1,4.206612587E0
2.678853975E0,-4.857506180E1,-3.591901016E1,6.127061367E0
2.680907475E0,-5.588485718E1,-3.708977509E1,7.350498676E0
2.682960975E0,-6.990560150E1,-3.903147507E1,1.006312943E1
2.685014475E0,-7.628166199E1,-4.005140305E1,1.253155136E1
2.687067941E0,-7.734947205E1,-4.005140305E1,1.362330723E1
2.689121374E0,-7.815153503E1,-3.898837662E1,1.499069500E1
2.691174807E0,-7.835025024E1,-3.606026840E1,1.447324848E1
2.693228173E0,-7.840052795E1,-3.119495201E1,1.252197456E1
2.695281606E0,-7.841010284E1,-2.836021614E1,1.130093098E1
2.697335106E0,-7.841489410E1,-2.264495850E1,9.146149635E0
2.699388606E0,-7.841728973E1,-1.780388260E1,7.491756439E0
2.701429906E0,-7.841728973E1,-1.593401051E1,7.051223278E0
2.703471206E0,-7.841728973E1,-1.332642555E1,6.723217487E0
2.705512539E0,-7.841728973E1,-1.227058315E1,6.502951145E0
2.707553905E0,-7.841728973E1,-1.211974812E1,6.330568790E0
2.709595305E0,-7.841728973E1,-1.220115089E1,5.837363243E0
2.711636671E0,-7.761283875E1,-1.240944672E1,5.504569054E0
2.713678037E0,-7.507019806E1,-1.245733070E1,5.303455830E0
2.715719370E0,-6.645555878E1,-1.237832165E1,4.809951305E0
2.717760736E0,-5.678268433E1,-1.188032818E1,4.022258759E0
2.719802069E0,-4.773229980E1,-1.143021774E1,2.820369720E0
2.721843469E0,-4.360200500E1,-1.015889740E1,2.130839586E0
2.723884902E0,-3.630687332E1,-8.480561256E0,5.195417404E-1
2.725926335E0,-3.039049911E1,-6.591536522E0,-1.359906554E0
2.727967801E0,-2.786940575E1,-5.734412193E0,-2.377442360E0
2.730009301E0,-2.368882942E1,-4.230554581E0,-4.489128113E0
2.732050834E0,-2.060509872E1,-3.069366693E0,-6.553229332E0
2.734092400E0,-1.938166046E1,-2.607285738E0,-7.561188221E0
2.736105800E0,-1.747827148E1,-1.996764183E0,-9.419088364E0
2.738119166E0,-1.613273048E1,-1.802833915E0,-1.085560989E1
2.740132532E0,-1.564670658E1,-1.853112102E0,-1.136078644E1
2.742145865E0,-1.497154140E1,-2.188300371E0,-1.196173096E1
2.744159165E0,-1.455465126E1,-2.628833532E0,-1.220115089E1
2.746172465E0,-1.425058746E1,-2.817975283E0,-1.227537155E1
2.748185798E0,-1.408778191E1,-3.052607059E0,-1.233762074E1
2.750199131E0,-1.363767242E1,-3.126827478E0,-1.221551609E1
2.752212464E0,-1.306066990E1,-3.143586874E0,-1.188511658E1
2.754225830E0,-1.234719753E1,-3.160346270E0,-1.141106415E1
2.756239130E0,-1.196891403E1,-3.203441858E0,-1.112615490E1
2.758252396E0,-1.124586487E1,-3.313575268E0,-1.047972012E1
2.760265662E0,-1.090828228E1,-3.349488258E0,-1.012537861E1
2.762278895E0,-1.031451988E1,-3.366247654E0,-9.404723167E0
2.764292095E0,-9.835680008E0,-3.253720045E0,-8.662521362E0
2.766305228E0,-9.651326180E0,-3.162740469E0,-8.289025307E0
2.768318328E0,-9.399934769E0,-2.935291290E0,-7.494150639E0
2.770331394E0,-9.289801598E0,-2.698265314E0,-6.644208908E0
2.772344460E0,-9.289801598E0,-2.600103140E0,-6.210858345E0
2.774357493E0,-9.390357971E0,-2.439691544E0,-5.329792023E0
2.776370593E0,-9.615413666E0,-2.410961151E0,-4.436455727E0
2.778383726E0,-9.945813179E0,-2.477998734E0,-3.545812607E0
2.780396892E0,-1.013256073E1,-2.554613113E0,-3.112462282E0
2.782410025E0,-1.052999878E1,-2.782062292E0,-2.293645144E0
2.784423191E0,-1.088434029E1,-3.059789658E0,-1.522712231E0
2.786436391E0,-1.103756905E1,-3.210624456E0,-1.158793569E0
2.788449557E0,-1.127698898E1,-3.517082214E0,-5.315127969E-1
2.790462690E0,-1.138472843E1,-3.811569214E0,-1.436521020E-2
2.792475856E0,-1.139909363E1,-3.933673382E0,2.106897533E-1
2.794489022E0,-1.128417206E1,-4.146757126E0,5.722141862E-1
2.796502122E0,-1.100883865E1,-4.340687752E0,9.050082564E-1
2.798515222E0,-1.082687950E1,-4.419696331E0,1.051054597E0
2.800529055E0,-1.042225933E1,-4.613626480E0,1.285686255E0
2.802542188E0,-9.950601578E0,-4.757278919E0,1.395819545E0
2.804555321E0,-9.445425034E0,-4.884171486E0,1.414973259E0
2.806568487E0,-9.191639900E0,-4.944325924E0,1.410184860E0
2.808581653E0,-8.657732964E0,-5.102343082E0,1.381454349E0
2.810594819E0,-8.123826027E0,-5.245995045E0,1.343147159E0
2.812608052E0,-7.853281021E0,-5.315426826E0,1.331176162E0
2.814621285E0,-7.017704487E0,-5.559635639E0,1.343147159E0
2.816634585E0,-6.735188484E0,-5.648221016E0,1.369483352E0
2.818647885E0,-6.440701962E0,-5.736806393E0,1.424550056E0
2.820661218E0,-5.767930984E0,-5.928342819E0,1.596932530E0
2.822674584E0,-5.018546104E0,-6.067206383E0,1.821987510E0
2.824687917E0,-4.244919777E0,-6.115090370E0,1.936909199E0
2.826701283E0,-3.852270603E0,-6.210858345E0,2.111685991E0
2.828714683E0,-3.071760893E0,-6.332962990E0,2.212242365E0
2.830728149E0,-2.257732153E0,-6.548440933E0,2.245761156E0
2.832741649E0,-1.829170108E0,-6.651391506E0,2.248155355E0
2.834755215E0,-8.978256583E-1,-6.866869926E0,2.171540976E0
2.836797081E0,1.723825186E-1,-7.046434879E0,2.003946781E0
2.838838981E0,1.424550056E0,-7.161356449E0,1.783680320E0
2.840880881E0,2.803610086E0,-7.204452038E0,1.477222443E0
2.842922747E0,3.536235809E0,-7.218817234E0,1.297657371E0
2.844964647E0,5.078401089E0,-7.302614689E0,8.762778044E-1
2.847006547E0,6.720823288E0,-7.364863873E0,3.184288144E-1
2.849048447E0,7.570765018E0,-7.345710278E0,2.154781483E-2
2.851090380E0,9.395146370E0,-7.233182430E0,-5.434837937E-1
2.853132280E0,1.163851357E1,-7.235576630E0,-1.455674648E0
2.855174180E0,1.431283665E1,-7.276278019E0,-2.434903145E0
2.857216146E0,1.576881123E1,-7.264307022E0,-2.995146275E0
2.859258112E0,1.892676353E1,-7.142202854E0,-4.211400986E0
2.861299345E0,2.250848961E1,-6.888417721E0,-5.607519627E0
2.863341378E0,2.445976257E1,-6.730400085E0,-6.366481781E0
2.865383411E0,2.856133080E1,-6.352116585E0,-7.870040417E0
2.867425444E0,3.284695053E1,-5.897218227E0,-9.165303230E0
2.869467444E0,3.505709839E1,-5.636250019E0,-9.715970039E0
2.871509477E0,3.944806290E1,-5.030517101E0,-1.060661316E1
2.873551510E0,4.369777298E1,-4.295197964E0,-1.116446209E1
2.875593576E0,4.776342773E1,-3.335123062E0,-1.145894814E1
2.877635576E0,4.972667313E1,-2.782062292E0,-1.150204468E1
2.879677542E0,5.340416718E1,-1.663970232E0,-1.147570801E1
2.881719475E0,5.648580170E1,-5.027823448E-1,-1.122910500E1
2.883777875E0,5.887760925E1,6.224924326E-1,-1.091307068E1
2.885836341E0,5.977543640E1,1.161187768E0,-1.074068832E1
2.887894907E0,6.097971725E1,2.133233786E0,-1.028339577E1
2.889953507E0,6.151362610E1,2.920926094E0,-9.680056572E0
2.892012073E0,6.158066177E1,3.203441858E0,-9.313743591E0
2.894070606E0,6.142743301E1,3.471592426E0,-8.466196060E0
2.896129139E0,6.091507339E1,3.366247654E0,-7.496544838E0
2.898159405E0,6.002203751E1,3.210624456E0,-6.948272705E0
2.900189605E0,5.944024658E1,2.683900118E0,-5.743988991E0
2.902219771E0,5.802766800E1,1.936909199E0,-4.417302132E0
2.904249904E0,5.621046829E1,9.504981041E-1,-3.043030262E0
2.906590967E0,5.515462494E1,3.471592367E-1,-2.394201756E0
2.908603967E0,5.267153931E1,-1.082179189E0,-1.094150186E0
2.910615967E0,4.981764984E1,-2.782062292E0,9.576806426E-2
2.912628967E0,4.827578354E1,-3.706224203E0,6.392518282E-1
2.914641967E0,4.499572754E1,-5.676951408E0,1.690306425E0
2.916655217E0,4.140652084E1,-7.712022781E0,2.731784105E0
2.919585217E0,3.746566391E1,-9.871592522E0,3.691859007E0
2.921601967E0,3.274639511E1,-1.232564926E1,4.414907932E0
2.923614967E0,2.684229279E1,-1.523011589E1,4.520252705E0
2.925628967E0,2.341110229E1,-1.681268311E1,4.357447147E0
2.927642467E0,1.567783165E1,-2.010949898E1,3.792415380E0
2.929656133E0,6.979397297E0,-2.336800766E1,3.145981073E0
2.931669883E0,2.334346771E0,-2.493411446E1,2.875436306E0
2.933683883E0,-7.482179642E0,-2.780476189E1,2.509123325E0
2.935697883E0,-1.788049698E1,-3.018699265E1,2.525882721E0
2.937711597E0,-2.835542870E1,-3.199461555E1,3.016694069E0
2.939725222E0,-3.418052292E1,-3.285173798E1,3.550601006E0
2.941738888E0,-4.581933594E1,-3.360351944E1,5.262754440E0
2.943752388E0,-5.173061752E1,-3.365858459E1,6.344933987E0
2.945765933E0,-6.327336502E1,-3.310552597E1,8.813355446E0
2.947779516E0,-7.314495850E1,-3.161633110E1,1.149486160E1
2.949793054E0,-7.710047913E1,-2.913354492E1,1.411411858E1
2.951806625E0,-7.775888062E1,-2.758449554E1,1.529715347E1
2.953820225E0,-7.825209045E1,-2.405035400E1,1.728673553E1
2.955833850E0,-7.837658691E1,-2.048299408E1,1.893873405E1
2.957847438E0,-7.839813232E1,-1.890521431E1,1.960910988E1
2.959860882E0,-7.841249847E1,-1.636257362E1,2.079424095E1
2.961874250E0,-7.841728973E1,-1.458577633E1,2.195063972E1
2.963887550E0,-7.841728973E1,-1.391061115E1,2.243187332E1
2.965900835E0,-7.841728973E1,-1.280449009E1,2.301605988E1
2.967914107E0,-7.841728973E1,-1.187075138E1,2.290831947E1
2.969927367E0,-7.841728973E1,-1.144937134E1,2.257313156E1
2.971940617E0,-7.841728973E1,-1.064252567E1,2.133772469E1
2.973953817E0,-7.841728973E1,-9.962572098E0,1.953010178E1
2.975966970E0,-7.686824036E1,-9.414299965E0,1.739208031E1
2.977980118E0,-7.462966156E1,-9.143755913E0,1.622131538E1
2.979993260E0,-6.888806915E1,-8.554781914E0,1.383160210E1
2.982006397E0,-6.278255081E1,-7.812579632E0,1.153077507E1
2.984019530E0,-5.976585770E1,-7.405565262E0,1.041507626E1
2.986032630E0,-5.402216721E1,-6.522104740E0,8.202834129E0
2.988045763E0,-4.864928055E1,-5.607519627E0,6.040870190E0
2.990058863E0,-4.612339783E1,-5.155015469E0,4.987421513E0
2.992071963E0,-4.135624313E1,-4.256890774E0,2.908955097E0
2.994084996E0,-3.701555634E1,-3.454833031E0,8.355764151E-1
2.996097962E0,-3.502118683E1,-3.088520288E0,-1.795651317E-1
2.998110962E0,-2.972012329E1,-2.073378563E0,-3.023876667E0
3.000125728E0,-2.819022942E1,-1.764526606E0,-3.881000996E0
3.002138661E0,-2.550872231E1,-1.477222443E0,-5.454290867E0
3.004151627E0,-2.432089996E1,-9.911994934E-1,-6.122272968E0
3.006164560E0,-2.222357941E1,-6.895300746E-1,-7.316979885E0
3.008177460E0,-2.043271637E1,-5.386953950E-1,-8.375216484E0
3.010190360E0,-1.961868668E1,-5.147533417E-1,-8.767866135E0
3.012203226E0,-1.814385986E1,-5.458779931E-1,-9.375992775E0
3.014216026E0,-1.679352951E1,-7.086837292E-1,-9.735123634E0
3.016228859E0,-1.614709473E1,-8.427590132E-1,-9.823708534E0
3.018241725E0,-1.489971542E1,-1.077390790E0,-9.897929192E0
3.020254691E0,-1.370231533E1,-1.264138460E0,-9.854833603E0
3.022267724E0,-1.313488960E1,-1.347935557E0,-9.785401344E0
3.024280790E0,-1.207186413E1,-1.498770237E0,-9.579500198E0
3.026293856E0,-1.115488529E1,-1.575384736E0,-9.253889084E0
3.028306922E0,-1.042465305E1,-1.628057122E0,-8.813355446E0
3.030319988E0,-1.014453220E1,-1.651999116E0,-8.538022995E0
3.032333088E0,-9.730335236E0,-1.714248419E0,-7.843704224E0
3.034346254E0,-9.433453560E0,-1.778891921E0,-7.000945091E0
3.036359487E0,-9.304166794E0,-1.819593310E0,-6.522104740E0
3.038372753E0,-9.028834343E0,-1.922544003E0,-5.511751652E0
3.040385986E0,-8.719982147E0,-2.054224968E0,-4.458003521E0
3.042399186E0,-8.528446198E0,-2.114080191E0,-3.936067581E0
3.044412319E0,-8.123826027E0,-2.288856745E0,-2.913743496E0
3.046425485E0,-7.644985199E0,-2.477998734E0,-1.929726601E0
3.048438651E0,-7.388805866E0,-2.585737944E0,-1.474828243E0
3.050451851E0,-6.790255070E0,-2.798821688E0,-6.631938815E-1
3.052465051E0,-6.148609161E0,-2.992752075E0,1.675941236E-2
3.054478284E0,-5.444714069E0,-3.074155092E0,3.303998411E-1
3.056491584E0,-5.061641693E0,-3.191470861E0,9.217676520E-1
3.058504884E0,-3.763684988E0,-3.169923067E0,1.742978811E0
3.060517984E0,-3.275267839E0,-3.117250681E0,1.987187386E0
3.062532917E0,-2.784456491E0,-3.047818661E0,2.212242365E0
3.064547917E0,-1.774103403E0,-2.916137695E0,2.501940727E0
3.066562950E0,-7.565677166E-1,-2.791639090E0,2.621650934E0
3.068577983E0,-2.130839527E-1,-2.719813108E0,2.638410330E0
3.070593016E0,9.840168953E-1,-2.595314741E0,2.631227732E0
3.072608016E0,2.348711967E0,-2.463633537E0,2.631227732E0
3.074623049E0,3.100491285E0,-2.365471363E0,2.636016130E0
3.076638015E0,4.723760128E0,-2.126051188E0,2.631227732E0
3.078652948E0,6.409577370E0,-1.821987510E0,2.607285738E0
3.080696314E0,8.284236908E0,-1.534683347E0,2.499546528E0
3.082739714E0,1.027142429E1,-1.290474772E0,2.291250944E0
3.084783147E0,1.235677433E1,-1.005564690E0,2.011129379E0
3.086826580E0,1.344374180E1,-8.667010069E-1,1.829170108E0
3.088870046E0,1.571135044E1,-6.440402865E-1,1.381454349E0
3.090913479E0,1.813907051E1,-4.070142806E-1,8.068459630E-1
3.092956845E0,1.941757393E1,-2.274491638E-1,5.147533417E-1
3.095000178E0,2.215175247E1,1.268926859E-1,-2.777273953E-1
3.097043478E0,2.503466988E1,4.046200812E-1,-1.168370485E0
3.099086744E0,2.790531921E1,5.291185975E-1,-1.561019540E0
3.101130044E0,2.932029152E1,8.020575643E-1,-2.159569979E0
3.103173410E0,3.209996033E1,1.063025594E0,-2.573766708E0
3.105216876E0,3.487753296E1,1.256955862E0,-2.971204281E0
3.107260309E0,3.622068024E1,1.355118155E0,-3.155557871E0
3.109303742E0,3.878487015E1,1.601720929E0,-3.452438831E0
3.111347142E0,4.114315796E1,1.862688899E0,-3.605667830E0
3.113390542E0,4.219181824E1,1.991975784E0,-3.643975019E0
3.115433908E0,4.397549820E1,2.224213362E0,-3.667917013E0
3.117477274E0,4.536443710E1,2.410961151E0,-3.718195200E0
3.119520674E0,4.636281967E1,2.564189911E0,-3.873818398E0
3.121562474E0,4.673870850E1,2.662352324E0,-3.976768970E0
3.123604207E0,4.729176712E1,2.846705914E0,-4.271255970E0
3.125645873E0,4.745936203E1,2.932897091E0,-4.448426723E0
3.127699539E0,4.761498642E1,3.050212860E0,-4.850652695E0
3.129753305E0,4.756949615E1,3.026270866E0,-5.260360241E0
3.131807071E0,4.731331635E1,2.779668093E0,-5.760748386E0
3.133860871E0,4.680335236E1,2.559401512E0,-6.354510784E0
3.135914704E0,4.644900894E1,1.968033791E0,-6.668150902E0
3.137968537E0,4.563258743E1,1.254561663E0,-7.321768284E0
3.140022337E0,4.462223434E1,4.405331016E-1,-7.937077999E0
3.142047703E0,4.402577972E1,2.394201700E-3,-8.190863609E0
3.144073003E0,4.268741989E1,-9.840168953E-1,-8.542811394E0
3.146098269E0,4.107133484E1,-2.066195965E0,-8.588300705E0
3.148123535E0,4.017350769E1,-2.652775526E0,-8.463802338E0
3.150148801E0,3.824617386E1,-3.861847401E0,-7.953837395E0
3.152174101E0,3.611054611E1,-5.210082054E0,-7.218817234E0
3.154199434E0,3.493259811E1,-5.981015205E0,-6.802226067E0
3.156224767E0,3.227952576E1,-7.735964775E0,-5.952284813E0
3.158250133E0,2.915269852E1,-9.723152161E0,-5.133467674E0
3.160275533E0,2.556139565E1,-1.196891403E1,-4.417302132E0
3.163209533E0,2.146701050E1,-1.437748051E1,-3.881000996E0
3.165376967E0,1.677198219E1,-1.683901978E1,-3.517082214E0
3.167390967E0,1.414763737E1,-1.807682228E1,-3.383007050E0
3.169404967E0,8.200440407E0,-2.057397461E1,-3.265691042E0
3.171418967E0,1.065419793E0,-2.305915451E1,-3.289633036E0
3.173432967E0,-2.954444885E0,-2.426583290E1,-3.308786631E0
3.175447217E0,-1.183004951E1,-2.663160324E1,-3.124433279E0
3.177461417E0,-2.146222305E1,-2.877680779E1,-2.432508945E0
3.179475583E0,-3.243035889E1,-2.977997780E1,-1.000776291E0
3.181489725E0,-4.441154480E1,-3.239205170E1,1.074996591E0
3.183503725E0,-5.078251266E1,-3.290919876E1,2.315192938E0
3.185517725E0,-6.400150299E1,-3.348859787E1,5.145438671E0
3.187531825E0,-7.004446411E1,-3.361548996E1,6.696881294E0
3.189546006E0,-7.629841614E1,-3.347183609E1,9.840468407E0
3.191560256E0,-7.788816833E1,-3.252133942E1,1.294814205E1
3.193574486E0,-7.815392303E1,-3.165942764E1,1.435593224E1
3.195588628E0,-7.835264587E1,-2.963632584E1,1.611357689E1
3.197602828E0,-7.840052795E1,-2.600911140E1,1.756446266E1
3.199617078E0,-7.841010284E1,-2.394500923E1,1.843355751E1
3.201631254E0,-7.841489410E1,-1.974558067E1,2.006400871E1
3.203645309E0,-7.841728973E1,-1.622370911E1,2.127786827E1
3.205659309E0,-7.841728973E1,-1.493802261E1,2.164896965E1
3.207673209E0,-7.841728973E1,-1.339585781E1,2.164178848E1
3.209687113E0,-7.841728973E1,-1.284519100E1,2.065058899E1
3.211701022E0,-7.841728973E1,-1.269435692E1,1.891479111E1
3.213714935E0,-7.841728973E1,-1.269914532E1,1.785416031E1
3.215728810E0,-7.745481873E1,-1.268478012E1,1.570895576E1
3.217742690E0,-7.193588257E1,-1.250760937E1,1.359697056E1
3.219756497E0,-6.827275848E1,-1.231128407E1,1.253873348E1
3.221770311E0,-6.059185791E1,-1.174385834E1,1.039831734E1
3.223784168E0,-5.307137299E1,-1.097292614E1,8.210017204E0
3.225798064E0,-4.951837540E1,-1.053478718E1,7.142202854E0
3.227811997E0,-4.293402100E1,-9.605836868E0,4.903624535E0
3.229825930E0,-3.713286972E1,-8.676886559E0,2.631227732E0
3.231839863E0,-3.212629700E1,-8.229170799E0,4.740519226E-1
3.233853796E0,-2.990208244E1,-7.398382664E0,-5.458779931E-1
3.235867696E0,-2.598995781E1,-6.596324921E0,-2.403778553E0
3.237881562E0,-2.276706314E1,-5.861305237E0,-4.019864559E0
3.239895428E0,-2.138321304E1,-5.516540051E0,-4.726154327E0
3.241909261E0,-1.796908188E1,-4.489128113E0,-6.435913563E0
3.243924861E0,-1.705689240E1,-4.175487995E0,-6.876446724E0
3.245938594E0,-1.623089218E1,-3.883395195E0,-7.278672218E0
3.247952260E0,-1.481113052E1,-3.363853455E0,-7.891588211E0
3.249965860E0,-1.359697056E1,-2.980781078E0,-8.219594002E0
3.251979460E0,-1.304869843E1,-2.844311714E0,-8.279448509E0
3.253993060E0,-1.201919174E1,-2.734178305E0,-8.269871712E0
3.256006726E0,-1.098729134E1,-2.825158119E0,-8.221987724E0
3.258020359E0,-1.046774864E1,-2.904166698E0,-8.154950142E0
3.260033992E0,-9.488520622E0,-3.059789658E0,-7.843704224E0
3.262047692E0,-8.578723907E0,-3.124433279E0,-7.348104477E0
3.264061525E0,-7.781454563E0,-3.186682463E0,-6.773495674E0
3.266075358E0,-7.436689854E0,-3.189076662E0,-6.445490360E0
3.268089291E0,-6.818985939E0,-3.148375273E0,-5.727229595E0
3.270103291E0,-6.299443722E0,-3.107673883E0,-4.937143326E0
3.272117291E0,-6.062417984E0,-3.086126089E0,-4.517858505E0
3.274131357E0,-5.624279022E0,-3.031059265E0,-3.687070608E0
3.276145490E0,-5.159803867E0,-2.999934673E0,-2.899378300E0
3.278159623E0,-4.915595531E0,-3.011905670E0,-2.554613113E0
3.280173823E0,-4.326322556E0,-3.069366693E0,-1.927332401E0
3.282188023E0,-3.679888010E0,-3.122039080E0,-1.347935557E0
3.284202123E0,-3.308786631E0,-3.157952070E0,-1.074996591E0
3.286216189E0,-2.518700123E0,-3.222595453E0,-5.961562395E-1
3.288230189E0,-1.663970232E0,-3.277662039E0,-2.178723514E-1
3.290244189E0,-7.733271718E-1,-3.258508444E0,1.029506698E-1
3.292258222E0,-3.160346150E-1,-3.224989653E0,2.346317619E-1
3.294272255E0,6.488286853E-1,-3.148375273E0,3.974374831E-1
3.296286321E0,1.716642618E0,-3.035847664E0,4.333505034E-1
3.298300454E0,2.269703150E0,-2.978386879E0,4.094084799E-1
3.300314620E0,3.416525841E0,-2.870647907E0,2.896983922E-1
3.302328853E0,4.544194698E0,-2.717418909E0,8.140286058E-2
3.304341319E0,5.686528206E0,-2.616862535E0,-1.699883193E-1
3.306355652E0,6.270713329E0,-2.358288765E0,-3.088520169E-1
3.308370085E0,7.451055050E0,-2.090138197E0,-5.913678408E-1
3.310384551E0,8.028057098E0,-1.922544003E0,-7.302315235E-1
3.312399017E0,9.158121109E0,-1.568202138E0,-1.015141487E0
3.314413483E0,1.025227070E1,-1.199495077E0,-1.240196466E0
3.316427916E0,1.134642124E1,-8.451532125E-1,-1.419761658E0
3.318442349E0,1.186117458E1,-6.751648784E-1,-1.517923832E0
3.320456749E0,1.280209541E1,-3.567360640E-1,-1.699883223E0
3.322471115E0,1.367597961E1,-5.027823523E-2,-1.855506301E0
3.324513515E0,1.449719048E1,2.801215947E-1,-1.910573006E0
3.326555981E0,1.535461426E1,6.248866320E-1,-1.814804912E0
3.328598381E0,1.578557014E1,7.996633649E-1,-1.721431017E0
3.330640747E0,1.664269447E1,1.156399369E0,-1.474828243E0
3.332683080E0,1.754051971E1,1.460463047E0,-1.199495077E0
3.334725346E0,1.847904778E1,1.584961534E0,-1.079784989E0
3.336767546E0,1.896267509E1,1.766920805E0,-8.667010069E-1
3.338809746E0,1.995627022E1,1.865083098E0,-6.823474765E-1
3.340851979E0,2.098577690E1,1.877054095E0,-5.171475410E-1
3.342894212E0,2.150053024E1,1.872265697E0,-4.189853072E-1
3.344936545E0,2.256595039E1,1.781286120E0,-2.920926213E-1
3.346978845E0,2.373192596E1,1.637633920E0,-2.968810201E-1
3.349021178E0,2.434244728E1,1.584961534E0,-3.160346150E-1
3.351063478E0,2.565237427E1,1.527500629E0,-3.471592367E-1
3.353105744E0,2.710804939E1,1.584961534E0,-3.902548850E-1
3.355148010E0,2.786701202E1,1.663970232E0,-3.854664862E-1
3.357190210E0,2.942803001E1,1.941697598E0,-3.902548850E-1
3.359232343E0,3.091961861E1,2.238578558E0,-4.692635238E-1
3.361274443E0,3.227234268E1,2.391807556E0,-5.386953950E-1
3.363316476E0,3.350535583E1,2.760514498E0,-9.385270476E-1
3.365358442E0,3.408235931E1,2.877830505E0,-1.106121182E0
3.367400342E0,3.510498428E1,3.047818661E0,-1.434126854E0
3.369442108E0,3.557185364E1,3.134010077E0,-1.616086125E0
3.371496174E0,3.640982056E1,3.313575268E0,-2.044648170E0
3.373550240E0,3.705386353E1,3.373430252E0,-2.523488522E0
3.375604306E0,3.746327209E1,3.292027235E0,-3.074155092E0
3.377658372E0,3.757340622E1,3.193865061E0,-3.351882458E0
3.379712372E0,3.755185699E1,2.851494312E0,-3.883395195E0
3.381766438E0,3.723582077E1,2.346317768E0,-4.376600742E0
3.383820538E0,3.698682404E1,2.049436569E0,-4.606443882E0
3.385846571E0,3.630687332E1,1.376665950E0,-4.982633114E0
3.387872537E0,3.543059540E1,6.153098345E-1,-5.231629848E0
3.389898470E0,3.492541885E1,1.915361285E-1,-5.296273232E0
3.391924403E0,3.372562408E1,-7.445967197E-1,-5.293879032E0
3.393950336E0,3.226994705E1,-1.891419291E0,-5.126285076E0
3.395976236E0,3.055570030E1,-3.215412855E0,-4.884171486E0
3.398002169E0,2.957168388E1,-3.948038578E0,-4.757278919E0
3.400028035E0,2.728282547E1,-5.617096424E0,-4.417302132E0
3.402053868E0,2.439272499E1,-7.539640427E0,-3.998316765E0
3.404079701E0,2.268087196E1,-8.588300705E0,-3.833117008E0
3.407013701E0,1.632905388E1,-1.201440334E1,-3.509899616E0
3.409180967E0,1.381244850E1,-1.322586918E1,-3.394978046E0
3.411193967E0,8.217199326E0,-1.568740845E1,-3.114856482E0
3.413206967E0,1.810016513E0,-1.808639908E1,-2.758120298E0
3.415220467E0,-5.384859085E0,-2.033455276E1,-2.252943754E0
3.417233800E0,-9.273042679E0,-2.139518547E1,-1.944091797E0
3.419247300E0,-1.768656731E1,-2.337040138E1,-1.122880578E0
3.421260900E0,-2.674173737E1,-2.505142975E1,1.460463107E-1
3.423274400E0,-3.204728699E1,-2.600671577E1,9.959878922E-1
3.425287828E0,-4.905390167E1,-2.822374725E1,4.340687752E0
3.427301203E0,-5.522166443E1,-2.879596138E1,5.782296181E0
3.429314647E0,-6.158305740E1,-2.932029152E1,7.463026047E0
3.431328047E0,-7.283850098E1,-3.020853996E1,1.131529617E1
3.433341410E0,-7.702386475E1,-3.050063324E1,1.519659710E1
3.435354826E0,-7.807012939E1,-3.023248291E1,1.692760468E1
3.437368287E0,-7.824250793E1,-2.838176537E1,2.005682564E1
3.439381715E0,-7.837419128E1,-2.504185295E1,2.265214157E1
3.441395248E0,-7.840771484E1,-2.124674416E1,2.441666794E1
3.443408748E0,-7.841249847E1,-1.947264099E1,2.507297897E1
3.445422336E0,-7.841728973E1,-1.651819611E1,2.611924362E1
3.447435836E0,-7.841728973E1,-1.456662273E1,2.627007866E1
3.449449309E0,-7.841728973E1,-1.395849514E1,2.598038101E1
3.451462759E0,-7.841728973E1,-1.335994434E1,2.470187759E1
3.453476187E0,-7.841728973E1,-1.317559147E1,2.265932274E1
3.455489596E0,-7.841728973E1,-1.311094761E1,2.135927200E1
3.457502987E0,-7.817787170E1,-1.295053673E1,1.836891365E1
3.459516403E0,-7.434235382E1,-1.268717384E1,1.536897945E1
3.461529803E0,-7.110269928E1,-1.252436829E1,1.392737103E1
3.463543226E0,-6.386263657E1,-1.209820080E1,1.117882729E1
3.465556596E0,-5.648819733E1,-1.148528481E1,8.468590736E0
3.467569953E0,-4.945373154E1,-1.065449715E1,5.839757442E0
3.469583332E0,-4.614255142E1,-1.018044472E1,4.580107689E0
3.471596698E0,-4.006098175E1,-9.141361237E0,2.202665567E0
3.473610098E0,-3.468599701E1,-8.052000046E0,-6.224924326E-2
3.475623464E0,-3.228910065E1,-7.522881031E0,-1.130063176E0
3.477636864E0,-2.805375862E1,-6.567594528E0,-3.126827478E0
3.479650230E0,-2.449567604E1,-5.739200592E0,-4.956296921E0
3.481663563E0,-2.295141602E1,-5.351340294E0,-5.784690380E0
3.483676896E0,-2.026272774E1,-4.616020679E0,-7.228394032E0
3.485690229E0,-1.711195755E1,-3.921702385E0,-8.789413452E0
3.487703529E0,-1.711195755E1,-3.620033026E0,-8.789413452E0
3.489716829E0,-1.515828991E1,-3.234566450E0,-9.974543571E0
3.491730129E0,-1.325459957E1,-2.990357876E0,-1.104235744E1
3.493743395E0,-1.154992867E1,-2.873042107E0,-1.182286739E1
3.495756628E0,-1.079575443E1,-2.676717520E0,-1.211974812E1
3.497769828E0,-9.510068893E0,-2.521094322E0,-1.245972538E1
3.499783028E0,-8.523657799E0,-2.387019157E0,-1.245493698E1
3.501796194E0,-8.126219749E0,-2.336740971E0,-1.234959126E1
3.503809394E0,-7.472602844E0,-2.255337954E0,-1.188511658E1
3.505822560E0,-6.917148113E0,-2.298433542E0,-1.106629944E1
3.507835793E0,-6.728005886E0,-2.346317768E0,-1.069280434E1
3.509849059E0,-6.546046734E0,-2.284068346E0,-9.780612946E0
3.511862359E0,-6.507739544E0,-2.015917778E0,-8.885181427E0
3.513875659E0,-6.524498940E0,-1.850717902E0,-8.470984459E0
3.515888992E0,-6.567594528E0,-1.537077546E0,-7.597101212E0
3.517902358E0,-6.629843712E0,-1.355118155E0,-6.610690117E0
3.519915724E0,-6.720823288E0,-1.312022567E0,-5.597942829E0
3.521929124E0,-6.768707275E0,-1.352723956E0,-5.092766285E0
3.523942524E0,-6.902782917E0,-1.515529633E0,-4.060565948E0
3.525955990E0,-7.046434879E0,-1.702277422E0,-3.066972494E0
3.527969423E0,-7.123049259E0,-1.812410712E0,-2.573766708E0
3.529982823E0,-7.273883820E0,-2.011129379E0,-1.620874524E0
3.531996223E0,-7.386411667E0,-2.147598982E0,-6.919242740E-1
3.534009656E0,-7.429507256E0,-2.197877169E0,-2.633621991E-1
3.536023089E0,-7.458237648E0,-2.279279947E0,5.386953950E-1
3.538036522E0,-7.376834869E0,-2.327163935E0,1.264138460E0
3.540050022E0,-7.288249016E0,-2.343923569E0,1.561019540E0
3.542063588E0,-7.003339291E0,-2.315192938E0,2.059013367E0
3.544077188E0,-6.591536522E0,-2.248155355E0,2.434903145E0
3.546090788E0,-6.043264389E0,-2.200271368E0,2.767697096E0
3.548105688E0,-5.708076000E0,-2.169146776E0,2.899378300E0
3.550120654E0,-4.992209911E0,-2.128445387E0,3.117250681E0
3.552135687E0,-4.187458992E0,-2.044648170E0,3.270479441E0
3.554150853E0,-3.773261786E0,-1.972822189E0,3.327940464E0
3.556166053E0,-2.916137695E0,-1.810016513E0,3.414131641E0
3.558181286E0,-2.054224968E0,-1.587355733E0,3.464409828E0
3.560196552E0,-1.606509328E0,-1.474828243E0,3.476380825E0
3.562211885E0,-7.374141216E-1,-1.249773264E0,3.502717018E0
3.564227285E0,5.027823523E-2,-1.077390790E0,3.524264812E0
3.566242718E0,7.517793179E-1,-1.012747288E0,3.521870613E0
3.569176718E0,1.462857246E0,-1.029506683E0,3.562572241E0
3.571230967E0,2.128445387E0,-1.213860273E0,3.627215624E0
3.573244967E0,2.468421936E0,-1.331176162E0,3.665522814E0
3.575258967E0,3.217807055E0,-1.606509328E0,3.651157618E0
3.577273467E0,4.101267338E0,-1.900996208E0,3.529053211E0
3.579287467E0,4.604049683E0,-2.049436569E0,3.409343243E0
3.581301717E0,5.758354187E0,-2.341529369E0,3.095702887E0
3.583316117E0,7.192481041E0,-2.578555346E0,2.657563925E0
3.585330783E0,8.028057098E0,-2.683900118E0,2.377442360E0
3.587345354E0,9.888352394E0,-2.782062292E0,1.728613615E0
3.589359979E0,1.206707573E1,-2.724601507E0,9.313444495E-1
3.591374645E0,1.446127796E1,-2.516305923E0,-2.154781483E-2
3.593389345E0,1.576641655E1,-2.370259762E0,-5.075707436E-1
3.595403981E0,1.862509346E1,-2.013523579E0,-1.505952835E0
3.597418481E0,2.164896965E1,-1.656787634E0,-2.437297344E0
3.599432865E0,2.318844223E1,-1.479616642E0,-2.841917515E0
3.601447150E0,2.628683853E1,-1.233013868E0,-3.569754839E0
3.603461416E0,2.932508087E1,-1.077390790E0,-4.240131378E0
3.605475666E0,3.082863808E1,-1.046266198E0,-4.560954094E0
3.607489842E0,3.541383362E1,-1.213860273E0,-5.638644218E0
3.609503897E0,3.696048737E1,-1.271321058E0,-6.000168800E0
3.611517791E0,3.848080826E1,-1.295263171E0,-6.347328186E0
3.613531641E0,4.144243622E1,-1.249773264E0,-6.969820499E0
3.615562974E0,4.423197937E1,-1.065419793E0,-7.403171062E0
3.617593564E0,4.675546646E1,-7.805097699E-1,-7.654561996E0
3.619623390E0,4.891264343E1,-5.817909837E-1,-7.853281021E0
3.621652515E0,4.983680344E1,-1.077390760E-1,-7.956231594E0
3.623680995E0,5.132599640E1,4.572925270E-1,-8.171710014E0
3.625708918E0,5.234114075E1,1.017535686E0,-8.274660110E0
3.627736325E0,5.266914368E1,1.273715258E0,-8.291419983E0
3.629763253E0,5.294687271E1,1.752555609E0,-8.351274490E0
3.631789735E0,5.280082703E1,2.133233786E0,-8.523657799E0
3.633815801E0,5.260929108E1,2.274491549E0,-8.648156166E0
3.635841867E0,5.208256531E1,2.365471363E0,-8.957007408E0
3.637867867E0,5.138345718E1,2.154781580E0,-9.330503464E0
3.639893900E0,5.096926117E1,1.929726601E0,-9.493309021E0
3.641919900E0,5.006425476E1,1.271321058E0,-9.703998566E0
3.643945900E0,4.901798630E1,3.734954596E-1,-9.663297653E0
3.645971833E0,4.775624466E1,-1.412578970E-1,-9.395146370E0
3.647997733E0,4.704037857E1,-1.276109457E0,-9.158121109E0
3.650052733E0,4.451688766E1,-3.263296843E0,-7.968202591E0
3.652107733E0,4.349905396E1,-4.031835556E0,-7.439084053E0
3.654162666E0,4.110724640E1,-5.720046997E0,-6.311414719E0
3.656217632E0,3.820068359E1,-7.625831604E0,-5.245995045E0
3.658272632E0,3.650558853E1,-8.657732964E0,-4.776432514E0
3.660327665E0,3.252133942E1,-1.090828228E1,-3.904942989E0
3.662382731E0,2.770660019E1,-1.338867474E1,-3.028665066E0
3.664437797E0,2.494369125E1,-1.467675591E1,-2.513911724E0
3.666492863E0,1.868016052E1,-1.732743645E1,-1.249773264E0
3.668547963E0,7.355287075E0,-2.004485512E1,1.376665950E0
3.670603029E0,3.021482468E0,-2.279100418E1,2.499546528E0
3.672658229E0,-1.611297727E0,-2.413415146E1,3.744531393E0
3.674713462E0,-1.176540661E1,-2.671300697E1,6.531681538E0
3.676756462E0,-2.293705177E1,-2.898749733E1,9.605836868E0
3.678799428E0,-2.876004791E1,-2.992602539E1,1.123868179E1
3.680842394E0,-4.160763550E1,-3.167139816E1,1.472733307E1
3.682885394E0,-5.483859253E1,-3.258358765E1,1.860115242E1
3.684928360E0,-6.146334839E1,-3.271766281E1,2.057636833E1
3.686971260E0,-7.276906586E1,-3.220530319E1,2.457258987E1
3.689014160E0,-7.700710297E1,-3.100102234E1,2.727564430E1
3.691056960E0,-7.771099854E1,-2.985898781E1,2.796038437E1
3.693099693E0,-7.824250793E1,-2.619346428E1,2.930353165E1
3.695142393E0,-7.837419128E1,-2.195782280E1,3.046232605E1
3.697185093E0,-7.840771484E1,-1.814625359E1,3.108003044E1
3.699227859E0,-7.841249847E1,-1.664269447E1,3.105369377E1
3.701270592E0,-7.841728973E1,-1.438705730E1,3.005291748E1
3.703313358E0,-7.841728973E1,-1.284040260E1,2.797235680E1
3.705356091E0,-7.841728973E1,-1.223227596E1,2.666272736E1
3.707398924E0,-7.841728973E1,-1.124107647E1,2.369840622E1
3.709441757E0,-7.841728973E1,-1.047972012E1,2.048299408E1
3.711455457E0,-7.835025024E1,-1.009185982E1,1.878789902E1
3.713469123E0,-7.552748871E1,-9.213187218E0,1.530673027E1
3.715482856E0,-6.946507263E1,-8.186075211E0,1.194257736E1
3.717496556E0,-6.604615021E1,-7.625831604E0,1.029057789E1
3.719510256E0,-5.905717468E1,-6.462249756E0,7.106289864E0
3.721523956E0,-5.221664047E1,-5.341763496E0,4.029441357E0
3.723537656E0,-4.576187515E1,-4.364629745E0,1.051054597E0
3.725551356E0,-4.270417786E1,-3.924096584E0,-3.974374831E-1
3.727565056E0,-3.694612503E1,-3.110068083E0,-3.203441858E0
3.729578789E0,-3.171928215E1,-2.324769735E0,-5.717652798E0
3.731592555E0,-2.931550407E1,-1.898601890E0,-6.816591740E0
3.733606255E0,-2.502269936E1,-9.504981041E-1,-8.573935509E0
3.735619955E0,-2.141433907E1,4.309562966E-2,-9.723152161E0
3.737633688E0,-1.973839760E1,4.094084799E-1,-1.037676907E1
3.739647421E0,-1.669297218E1,8.690952063E-1,-1.163611984E1
3.741661221E0,-1.411890697E1,1.161187768E0,-1.248127270E1
3.743675021E0,-1.304391003E1,1.249773264E0,-1.268956852E1
3.745688921E0,-1.138472843E1,1.235408068E0,-1.269914532E1
3.747702921E0,-1.034803867E1,1.151610970E0,-1.237832165E1
3.749716921E0,-9.833285332E0,1.132457376E0,-1.189948177E1
3.751731021E0,-9.699210167E0,1.146822572E0,-1.161696625E1
3.753745187E0,-9.553164482E0,1.158793569E0,-1.082448483E1
3.755759387E0,-9.428665161E0,1.048660398E0,-9.809343338E0
3.757773620E0,-9.340080261E0,9.241618514E-1,-9.263465881E0
3.759787820E0,-9.129390717E0,5.267243981E-1,-8.162133217E0
3.761802053E0,-8.875604630E0,3.591302410E-2,-7.044040680E0
3.763816253E0,-8.705616951E0,-2.202665508E-1,-6.505345345E0
3.765830519E0,-8.243535995E0,-6.368576288E-1,-5.451896667E0
3.767844685E0,-7.661744595E0,-9.026140571E-1,-4.484339714E0
3.769858885E0,-6.941090107E0,-9.816226959E-1,-4.036623955E0
3.771873051E0,-6.560411930E0,-1.017535686E0,-3.198653460E0
3.773887217E0,-5.767930984E0,-9.481038451E-1,-2.449268341E0
3.775902083E0,-4.958691120E0,-8.283938169E-1,-1.783680320E0
3.777916183E0,-4.551377296E0,-7.565677166E-1,-1.484405041E0
3.779930283E0,-3.725377798E0,-5.674257874E-1,-9.528923035E-1
3.781944383E0,-2.935291290E0,-3.734954596E-1,-4.812345505E-1
3.783958483E0,-2.549824715E0,-2.801215947E-1,-2.753331959E-1
3.785972583E0,-1.807622313E0,-7.900865376E-2,7.900865376E-2
3.787986683E0,-1.142034173E0,1.412578970E-1,3.830722570E-1
3.790000783E0,-5.937620401E-1,3.639186621E-1,6.296750307E-1
3.792014916E0,-3.711012602E-1,4.788403511E-1,7.398083210E-1
3.794029082E0,-2.394201607E-2,6.847416759E-1,9.313444495E-1
3.796043248E0,7.900865376E-2,7.805097699E-1,1.007958889E0
3.798057381E0,1.149216816E-1,9.361328483E-1,1.110909581E0
3.800071481E0,-2.873042040E-2,1.031900883E0,1.154005170E0
3.802085547E0,-3.088520169E-1,1.120486379E0,1.134851575E0
3.804099647E0,-4.932055473E-1,1.163581967E0,1.110909581E0
3.806113713E0,-9.097966552E-1,1.247379065E0,1.041477680E0
3.808127746E0,-1.374271750E0,1.340752959E0,9.313444495E-1
3.810141746E0,-1.630451322E0,1.374271750E0,8.810662031E-1
3.812183612E0,-2.446874142E0,1.453280449E0,7.326257229E-1
3.814225545E0,-2.753331900E0,1.479616642E0,6.871358752E-1
3.816267445E0,-3.397372246E0,1.505952835E0,6.224924326E-1
3.818309345E0,-4.098873138E0,1.532289028E0,5.506663918E-1
3.820351211E0,-4.817133904E0,1.553836942E0,5.123591423E-1
3.822393044E0,-5.164592266E0,1.625662923E0,4.644751251E-1
3.824434877E0,-5.846940041E0,1.738190413E0,4.118026793E-1
3.826476577E0,-6.498162746E0,1.903390408E0,3.782838583E-1
3.828518243E0,-6.799831867E0,2.008735180E0,3.615244627E-1
3.830559909E0,-7.328950882E0,2.190694571E0,3.351882398E-1
3.832601609E0,-7.786243439E0,2.387019157E0,2.944868207E-1
3.834643309E0,-7.977779388E0,2.470816135E0,2.705447972E-1
3.836684242E0,-8.334515572E0,2.626439333E0,2.250549644E-1
3.838725908E0,-8.631396294E0,2.746149302E0,2.298433632E-1
3.840767608E0,-8.765471458E0,2.794033289E0,2.537853718E-1
3.842809341E0,-9.033622742E0,2.906560898E0,3.519476354E-1
3.844851074E0,-9.316138268E0,3.023876667E0,5.315127969E-1
3.846892807E0,-9.459790230E0,3.095702887E0,6.200982332E-1
3.848934540E0,-9.751882553E0,3.251325846E0,8.164227605E-1
3.850976240E0,-1.038634586E1,3.356670856E0,1.039083481E0
3.853017873E0,-1.067604446E1,3.394978046E0,1.266532660E0
3.855059473E0,-1.102081013E1,3.402160645E0,1.383848548E0
3.857101073E0,-1.179653072E1,3.327940464E0,1.572990537E0
3.859154739E0,-1.271829891E1,3.220201254E0,1.699883223E0
3.861208472E0,-1.377414131E1,3.088520288E0,1.790862918E0
3.863262172E0,-1.430804825E1,3.043030262E0,1.838746905E0
3.865315838E0,-1.539292145E1,2.971204281E0,1.951274395E0
3.867369504E0,-1.643679237E1,2.916137695E0,2.097320795E0
3.869423204E0,-1.693718147E1,2.908955097E0,2.166752577E0
3.871476970E0,-1.789007378E1,2.877830505E0,2.324769735E0
3.873502870E0,-1.876874542E1,2.870647907E0,2.489969730E0
3.875528736E0,-1.920449066E1,2.880224705E0,2.578555346E0
3.877554636E0,-2.002330780E1,2.889801502E0,2.758120298E0
3.879580502E0,-2.081339455E1,2.837129116E0,2.911349297E0
3.881606402E0,-2.154602051E1,2.753331900E0,3.040636063E0
3.883632335E0,-2.190275574E1,2.683900118E0,3.088520288E0
3.885658235E0,-2.259228516E1,2.540247917E0,3.143586874E0
3.887684168E0,-2.318604851E1,2.394201756E0,3.196259260E0
3.889710101E0,-2.344701576E1,2.315192938E0,3.229778051E0
3.891736001E0,-2.384445381E1,2.188300371E0,3.315969467E0
3.894657001E0,-2.407429695E1,2.066195965E0,3.373430252E0
3.896796967E0,-2.417006493E1,1.984793186E0,3.392583847E0
3.898810967E0,-2.410302734E1,1.884236693E0,3.361459255E0
3.900823967E0,-2.390191460E1,1.845929503E0,3.325546265E0
3.902836967E0,-2.373431969E1,1.783680320E0,3.232172251E0
3.904849967E0,-2.330575752E1,1.707065821E0,3.098097086E0
3.906863217E0,-2.274312019E1,1.659181833E0,2.925714493E0
3.908876217E0,-2.240553856E1,1.644816518E0,2.827552319E0
3.910889383E0,-2.163221169E1,1.671152830E0,2.600103140E0
3.912902525E0,-2.078945160E1,1.752555609E0,2.365471363E0
3.914915650E0,-2.033934212E1,1.798045516E0,2.240972757E0
3.916928872E0,-1.942475700E1,1.872265697E0,1.987187386E0
3.918942172E0,-1.852693176E1,1.965639591E0,1.731007814E0
3.920955535E0,-1.807921600E1,2.003946781E0,1.604115129E0
3.922968951E0,-1.717660141E1,2.075772762E0,1.367089152E0
3.924982335E0,-1.632426643E1,2.130839586E0,1.170764685E0
3.926995835E0,-1.553178501E1,2.154781580E0,1.103726983E0
3.929009301E0,-1.511998272E1,2.233790159E0,1.003170490E0
3.931022801E0,-1.426495266E1,2.324769735E0,9.409212470E-1
3.933036330E0,-1.342937660E1,2.398990154E0,9.528923035E-1
3.935049774E0,-1.301278591E1,2.427720547E0,9.768342972E-1
3.937063195E0,-1.221312237E1,2.451662540E0,1.041477680E0
3.939076595E0,-1.147331429E1,2.489969730E0,1.139639974E0
3.941090071E0,-1.113333702E1,2.492363930E0,1.175553083E0
3.943103571E0,-1.051802731E1,2.480392933E0,1.233013868E0
3.945117136E0,-1.000806236E1,2.449268341E0,1.252167463E0
3.947130761E0,-9.787796021E0,2.430114746E0,1.264138460E0
3.949144441E0,-9.421483040E0,2.358288765E0,1.235408068E0
3.951158133E0,-9.167697906E0,2.269703150E0,1.177947283E0
3.953171799E0,-9.031228065E0,2.231395960E0,1.120486379E0
3.955185477E0,-8.997709274E0,2.111685991E0,1.072602391E0
3.957199166E0,-8.995314598E0,1.991975784E0,9.744400978E-1
3.959212832E0,-9.057564735E0,1.857900500E0,8.930372596E-1
3.961226532E0,-9.105448723E0,1.793257117E0,8.523358107E-1
3.963240298E0,-9.196428299E0,1.680729628E0,7.637503147E-1
3.965254131E0,-9.222764015E0,1.587355733E0,6.416460276E-1
3.967267997E0,-9.234735489E0,1.534683347E0,5.770025849E-1
3.969281963E0,-9.222764015E0,1.479616642E0,4.501099288E-1
3.971295929E0,-9.198822021E0,1.434126854E0,3.184288144E-1
3.973309962E0,-9.206005096E0,1.367089152E0,1.771709323E-1
3.975323928E0,-9.189245224E0,1.333570361E0,9.576806426E-2
3.977337928E0,-9.129390717E0,1.254561663E0,-5.985504389E-2
3.979351928E0,-9.091083527E0,1.228225470E0,-1.316810995E-1
3.981365928E0,-9.031228065E0,1.165976286E0,-2.705447972E-1
3.983379894E0,-8.961795807E0,1.070208192E0,-3.711012602E-1
3.985393860E0,-8.846874237E0,9.840168953E-1,-4.165911078E-1
3.987407760E0,-8.787019730E0,9.361328483E-1,-4.237737060E-1
3.989421693E0,-8.593089104E0,8.834604025E-1,-4.237737060E-1
3.991435626E0,-8.351274490E0,8.595184088E-1,-4.141969085E-1
3.993449592E0,-8.205228806E0,8.547300100E-1,-4.022258818E-1
3.995463625E0,-7.848492622E0,9.026140571E-1,-3.878606856E-1
3.997477691E0,-7.419930458E0,9.792284966E-1,-3.878606856E-1
3.999491824E0,-7.178115845E0,1.012747288E0,-3.950432837E-1
4.001505957E0,-6.644208908E0,1.096544385E0,-4.141969085E-1
4.003520090E0,-6.117484570E0,1.199495077E0,-4.548983276E-1
4.005534190E0,-5.863699436E0,1.237802267E0,-4.812345505E-1
4.007548256E0,-5.418377876E0,1.288080573E0,-5.650315881E-1
4.009562322E0,-5.056853294E0,1.309628367E0,-6.224924326E-1
4.011576322E0,-4.790797710E0,1.283292055E0,-6.847416759E-1
4.013590322E0,-4.697423935E0,1.256955862E0,-6.991068721E-1
4.015604255E0,-4.503493309E0,1.209071875E0,-7.110779285E-1
4.017618121E0,-4.352658749E0,1.173158884E0,-7.254431248E-1
4.019632954E0,-4.288015366E0,1.168370485E0,-7.254431248E-1
4.021646787E0,-4.091690540E0,1.194706678E0,-7.350199223E-1
4.023660553E0,-3.892971992E0,1.240196466E0,-7.398083210E-1
4.025674319E0,-3.782838583E0,1.264138460E0,-7.278373241E-1
4.027688019E0,-3.526659012E0,1.345541358E0,-7.278373241E-1
4.029701685E0,-3.236960649E0,1.424550056E0,-7.278373241E-1
4.031715285E0,-3.069366693E0,1.462857246E0,-7.254431248E-1
4.033728818E0,-2.604891539E0,1.532289028E0,-7.924807668E-1
4.035742384E0,-2.430114746E0,1.539471745E0,-8.355764151E-1
4.037755884E0,-2.092532396E0,1.556231141E0,-9.265560508E-1
4.039769417E0,-1.932120800E0,1.575384736E0,-9.600749016E-1
4.041782917E0,-1.642422318E0,1.582567334E0,-1.058237195E0
4.043796450E0,-1.381454349E0,1.563413739E0,-1.173158884E0
4.045810016E0,-1.259350061E0,1.551442742E0,-1.223437071E0
4.047823616E0,-1.022324085E0,1.503558636E0,-1.359906554E0
4.049837216E0,-8.164227605E-1,1.462857246E0,-1.482010841E0
4.051850816E0,-7.158663273E-1,1.448492050E0,-1.546654344E0
4.053864382E0,-5.458779931E-1,1.429338455E0,-1.678335428E0
4.055906815E0,-3.184288144E-1,1.400607944E0,-1.774103403E0
4.057949315E0,-2.394201756E-1,1.374271750E0,-1.850717902E0
4.059991748E0,-8.619125932E-2,1.357512355E0,-1.903390408E0
4.062034181E0,7.182604820E-2,1.326387763E0,-1.884236693E0
4.064076581E0,1.508347094E-1,1.304839969E0,-1.855506301E0
4.066118947E0,2.968810201E-1,1.240196466E0,-1.790862918E0
4.068161347E0,4.429273009E-1,1.151610970E0,-1.728613615E0
4.070203713E0,5.123591423E-1,1.096544385E0,-1.692700624E0
4.072246146E0,6.272808313E-1,9.624691010E-1,-1.601720929E0
4.074288646E0,7.326257229E-1,7.900865674E-1,-1.493981838E0
4.076331212E0,7.685387731E-1,7.038952708E-1,-1.438915253E0
4.078373845E0,7.876923680E-1,4.453215301E-1,-1.292868972E0
4.080415611E0,7.924807668E-1,9.097966552E-2,-1.067813993E0
4.082458411E0,7.972691655E-1,-1.005564705E-1,-9.097966552E-1
4.084501244E0,7.924807668E-1,-5.339069963E-1,-5.123591423E-1
4.086544044E0,8.020575643E-1,-1.029506683E0,-8.140286058E-2
4.088586877E0,9.074024558E-1,-1.546654344E0,3.280056417E-1
4.090629710E0,1.010353088E0,-1.817199111E0,5.027823448E-1
4.092672610E0,1.345541358E0,-2.305616140E0,7.805097699E-1
4.094715543E0,1.860294700E0,-2.782062292E0,1.000776291E0
4.096758443E0,2.195482969E0,-3.007117271E0,1.074996591E0
4.098801343E0,3.110068083E0,-3.445256233E0,1.154005170E0
4.100844143E0,4.338293552E0,-3.825934410E0,1.165976286E0
4.102899843E0,5.945102215E0,-4.094084740E0,1.041477680E0
4.104955576E0,6.893206120E0,-4.197035789E0,8.882488012E-1
4.107011276E0,9.131784439E0,-4.290409565E0,4.189853072E-1
4.109066976E0,1.193060589E1,-4.209006786E0,-2.130839527E-1
4.111122676E0,1.521096230E1,-4.108449936E0,-5.698199868E-1
4.113178376E0,1.700421906E1,-3.837905407E0,-1.414973259E0
4.115234076E0,2.089719009E1,-3.392583847E0,-2.442085743E0
4.117260909E0,2.491017151E1,-2.889801502E0,-3.469198227E0
4.119287709E0,2.688299370E1,-2.659958124E0,-3.955221176E0
4.121314542E0,3.068259239E1,-2.315192938E0,-4.817133904E0
4.123341342E0,3.410151291E1,-2.164358377E0,-5.609913826E0
4.125368175E0,3.568677521E1,-2.140416384E0,-5.992986202E0
4.127395041E0,3.851432419E1,-2.094926596E0,-6.677727699E0
4.129421907E0,4.086543274E1,-1.941697598E0,-7.067982674E0
4.131448740E0,4.187099457E1,-1.810016513E0,-7.161356449E0
4.133475540E0,4.358524323E1,-1.462857246E0,-7.477391243E0
4.135502306E0,4.480898285E1,-1.051054597E0,-7.874828815E0
4.137556872E0,4.548893356E1,-5.961562395E-1,-7.987356186E0
4.139611438E0,4.561103821E1,-2.705447972E-1,-7.822156429E0
4.141665904E0,4.532133865E1,-1.915361285E-1,-7.666532993E0
4.143720270E0,4.507473755E1,-2.561795712E-1,-7.630620003E0
4.145774670E0,4.456716537E1,-5.650315881E-1,-7.652167797E0
4.147829103E0,4.410478592E1,-1.046266198E0,-7.757512569E0
4.149883503E0,4.390367508E1,-1.350329757E0,-7.865252018E0
4.151937936E0,4.357566833E1,-2.070984364E0,-8.126219749E0
4.153992369E0,4.326202774E1,-2.928108692E0,-8.360851288E0
4.156046802E0,4.295557022E1,-3.866635799E0,-8.549993515E0
4.158102868E0,4.281191635E1,-4.347870350E0,-8.614637375E0
4.160159001E0,4.251982498E1,-5.296273232E0,-8.698433876E0
4.162215201E0,4.220139694E1,-6.232406139E0,-8.672098160E0
4.164258567E0,4.198591995E1,-6.687304497E0,-8.590695381E0
4.166301933E0,4.134187698E1,-7.647379398E0,-8.205228806E0
4.168345333E0,4.040095520E1,-8.655338287E0,-7.537246227E0
4.170388733E0,3.978564835E1,-9.186851501E0,-7.108684063E0
4.172432133E0,3.814083099E1,-1.030973148E1,-6.127061367E0
4.174475533E0,3.577296448E1,-1.168160915E1,-4.958691120E0
4.176518899E0,3.426940536E1,-1.250042629E1,-4.285621166E0
4.178562165E0,3.061555481E1,-1.446367168E1,-2.628833532E0
4.180605331E0,2.610009003E1,-1.694915199E1,-4.213795066E-1
4.182648431E0,2.350687027E1,-1.840961456E1,8.403648138E-1
4.184691564E0,1.756925011E1,-2.166572952E1,3.497928619E0
4.186734697E0,1.043183613E1,-2.525972557E1,6.218040943E0
4.188777863E0,2.049436569E0,-2.712720299E1,8.992920876E0
4.190820963E0,-2.614468336E0,-3.093877220E1,1.040789413E1
4.192864096E0,-1.284758568E1,-3.478176498E1,1.340064621E1
4.194907229E0,-2.392346191E1,-3.843770981E1,1.654932022E1
