"Time (s)","Acceleration x (m/s^2)","Acceleration y (m/s^2)","Acceleration z (m/s^2)"
1.345286600E-2,-4.350264549E0,6.517316341E0,7.836521626E0
1.546386600E-2,-4.237737179E0,6.493374348E0,7.836521626E0
1.747486600E-2,-4.165910721E0,6.404788971E0,7.882011414E0
1.948636600E-2,-4.017470360E0,6.273107529E0,8.011298180E0
2.149803200E-2,-3.864241600E0,6.127061367E0,8.171710014E0
2.350953200E-2,-3.787626982E0,6.057629585E0,8.272266388E0
2.552093200E-2,-3.651157618E0,5.861305237E0,8.482955933E0
2.753243200E-2,-3.576937437E0,5.653009415E0,8.712799072E0
2.954400300E-2,-3.536235809E0,5.542876244E0,8.813355446E0
3.155562800E-2,-3.430891037E0,5.351340294E0,8.966584206E0
3.356740500E-2,-3.404554844E0,5.202899456E0,9.126996040E0
3.557920500E-2,-3.416525841E0,5.155015469E0,9.201216698E0
3.759075000E-2,-3.485957623E0,5.092766285E0,9.320926666E0
3.960225000E-2,-3.557783842E0,5.054459095E0,9.390357971E0
4.161355700E-2,-3.622427225E0,5.056853294E0,9.404723167E0
4.364512800E-2,-3.737348795E0,5.047276497E0,9.352050781E0
4.567546100E-2,-3.873818398E0,5.025728703E0,9.277831078E0
4.770464800E-2,-4.019864559E0,4.975450516E0,9.177274704E0
4.973282400E-2,-4.048594952E0,4.949114323E0,9.103054047E0
5.176015700E-2,-4.031835556E0,4.898836136E0,9.028834343E0
5.378668300E-2,-3.845088005E0,4.920383930E0,9.036016464E0
5.581243300E-2,-3.572149038E0,5.073612690E0,9.208398819E0
5.783748000E-2,-3.457227230E0,5.195716858E0,9.380781174E0
5.986188900E-2,-3.174711466E0,5.509357452E0,9.680056572E0
6.188571500E-2,-2.829946518E0,5.755959988E0,9.902717590E0
6.390900600E-2,-2.676717520E0,5.854122639E0,9.972148895E0
6.593180600E-2,-2.434903145E0,5.992986202E0,9.993697166E0
6.795419000E-2,-2.312798738E0,6.057629585E0,9.936236382E0
6.997622700E-2,-2.269703150E0,6.081571579E0,9.881169319E0
7.199790500E-2,-2.200271368E0,6.158185959E0,9.744700432E0
7.401928400E-2,-2.102109194E0,6.246771336E0,9.603442192E0
7.604028400E-2,-2.044648170E0,6.297049522E0,9.536404610E0
7.808968400E-2,-1.862688899E0,6.419154167E0,9.270648003E0
8.013908400E-2,-1.690306425E0,6.457461357E0,9.150938034E0
8.218845000E-2,-1.604115129E0,6.493374348E0,8.949825287E0
8.423781600E-2,-1.405396342E0,6.517316341E0,8.775048256E0
8.628718200E-2,-1.110909581E0,6.524498940E0,8.638579369E0
8.833651500E-2,-9.528923035E-1,6.507739544E0,8.518868446E0
9.038581500E-2,-7.206547260E-1,6.524498940E0,8.107066154E0
9.243504800E-2,-3.591302633E-1,6.421548367E0,8.111854553E0
9.448418100E-2,-1.795651317E-1,6.320991993E0,8.164526939E0
9.653328100E-2,1.460463107E-1,6.100725174E0,8.255506516E0
9.858248100E-2,4.046200812E-1,5.866093636E0,8.329727173E0
1.006316470E-1,5.219359994E-1,5.720046997E0,8.327332497E0
1.026809130E-1,7.134721279E-1,5.356128693E0,8.207622528E0
1.047207130E-1,1.019929886E0,4.970662117E0,8.018480301E0
1.067604460E-1,1.146822572E0,4.821922302E0,7.929895401E0
1.088001790E-1,1.335964561E0,4.505887508E0,7.896376610E0
1.108398790E-1,1.613691926E0,4.288015366E0,8.066365242E0
1.128795120E-1,1.869871497E0,4.175487995E0,8.253112793E0
1.149191450E-1,1.999158382E0,3.670311213E0,7.848492622E0
1.169587780E-1,2.518700123E0,2.743755102E0,6.931513309E0
1.189983440E-1,2.659958124E0,2.667140722E0,7.395988464E0
1.210378770E-1,2.753331900E0,2.609679937E0,8.008903503E0
1.230773770E-1,2.858676910E0,2.525882721E0,9.289801598E0
1.251168430E-1,2.904166698E0,2.482787132E0,1.047732544E1
1.271564090E-1,2.846705914E0,2.477998734E0,1.121473980E1
1.291959420E-1,2.614468336E0,2.458845139E0,1.263928986E1
1.312354080E-1,2.276885748E0,2.226607561E0,1.391061115E1
1.332748410E-1,2.078166962E0,2.035071373E0,1.457141113E1
1.353141740E-1,1.714248419E0,1.697489023E0,1.577359962E1
1.373535400E-1,1.367089152E0,1.517923832E0,1.634581375E1
1.393645060E-1,1.192312479E0,1.412579060E0,1.626919937E1
1.413754060E-1,8.595184088E-1,1.165976286E0,1.574726295E1
1.433862720E-1,3.088520169E-1,8.355764151E-1,1.515828991E1
1.453971050E-1,-6.560112834E-1,3.806780577E-1,1.438705730E1
1.474079050E-1,-1.065419793E0,2.466027737E-1,1.392258263E1
1.494186380E-1,-1.616086125E0,1.580173075E-1,1.285476780E1
1.514293710E-1,-1.628057122E0,3.088520169E-1,1.170794582E1
1.534401040E-1,-1.515529633E0,4.548983276E-1,1.118840408E1
1.554508370E-1,-1.374271750E0,7.182605267E-1,1.030254936E1
1.574615700E-1,-1.398213744E0,9.050082564E-1,9.543587685E0
1.603945700E-1,-1.620874524E0,9.864110947E-1,8.870816231E0
1.623208660E-1,-1.891419291E0,9.768342972E-1,8.272266388E0
1.643308660E-1,-1.989581585E0,9.816226959E-1,7.664138794E0
1.663418660E-1,-1.956062794E0,1.005564690E0,7.340921879E0
1.683528660E-1,-1.766920805E0,1.065419793E0,6.771101475E0
1.703638660E-1,-1.515529633E0,1.175553083E0,6.299443722E0
1.723748660E-1,-1.388636947E0,1.237802267E0,6.112696171E0
1.743856660E-1,-1.108515382E0,1.407790542E0,5.906795025E0
1.763966660E-1,-8.331822157E-1,1.589749932E0,5.887641430E0
1.784078080E-1,-5.770025849E-1,1.771709204E0,6.016928196E0
1.804189330E-1,-4.644751251E-1,1.860294700E0,6.141426563E0
1.824300440E-1,-2.011129409E-1,2.039859772E0,6.534075737E0
1.844411440E-1,-6.943184882E-2,2.123656988E0,6.759130478E0
1.864521440E-1,1.484405100E-1,2.149993181E0,7.154173851E0
1.884631440E-1,3.423708379E-1,2.039859772E0,7.527669430E0
1.904740670E-1,4.477157295E-1,2.037465572E0,7.723993778E0
1.924849240E-1,7.206547260E-1,2.140416384E0,8.154950142E0
1.944957240E-1,1.072602391E0,2.250549555E0,8.547599792E0
1.965064110E-1,1.376665950E0,2.420537949E0,8.899546623E0
1.985169990E-1,1.455674648E0,2.516305923E0,9.091083527E0
2.005274430E-1,1.386242747E0,2.782062292E0,9.471760750E0
2.025378110E-1,1.096544385E0,3.055001259E0,9.763854027E0
2.045481110E-1,9.074024558E-1,3.201047659E0,9.871592522E0
2.065628250E-1,5.793967843E-1,3.447650433E0,1.002003384E1
2.085773700E-1,3.758896589E-1,3.641580820E0,1.010622501E1
2.105918040E-1,3.303998411E-1,3.718195200E0,1.008707142E1
2.126060540E-1,3.687070608E-1,3.835511208E0,1.001524544E1
2.146200940E-1,4.908113480E-1,3.907337189E0,9.902717590E0
2.166340170E-1,5.650315881E-1,3.919308186E0,9.620202065E0
2.186477940E-1,5.674257874E-1,3.902548790E0,9.438241959E0
2.206614360E-1,5.530605912E-1,3.845088005E0,9.021651268E0
2.226749870E-1,4.357447028E-1,3.785232782E0,8.542811394E0
2.246884200E-1,3.519476354E-1,3.787626982E0,8.267477989E0
2.267018860E-1,1.221042871E-1,3.801992416E0,7.707234383E0
2.287153190E-1,-7.422025502E-2,3.890577793E0,7.154173851E0
2.307287850E-1,-1.771709323E-1,3.924096584E0,6.897994518E0
2.327422850E-1,-4.070142806E-1,3.933673382E0,6.373664379E0
2.347558180E-1,-6.153098345E-1,3.933673382E0,5.940313816E0
2.367693840E-1,-6.679822803E-1,3.955221176E0,5.751171589E0
2.387829170E-1,-6.440402865E-1,4.039018154E0,5.356128693E0
2.407963830E-1,-5.506663918E-1,4.055777550E0,5.269937038E0
2.428099160E-1,-4.405331016E-1,4.053383350E0,5.188534260E0
2.448234490E-1,-1.412578970E-1,3.993528366E0,5.052064896E0
2.468370490E-1,2.298433632E-1,3.854664803E0,4.968267918E0
2.488506820E-1,4.884171486E-1,3.646369219E0,4.937143326E0
2.508643480E-1,5.817909837E-1,3.519476414E0,4.965873718E0
2.528780480E-1,7.326257229E-1,3.141192675E0,5.107131481E0
2.548917810E-1,8.667010069E-1,2.674323320E0,5.296273232E0
2.569055470E-1,9.289502501E-1,2.401384354E0,5.406406879E0
2.589193800E-1,1.077390790E0,1.807622313E0,5.696105003E0
2.609333130E-1,1.156399369E0,1.216254473E0,6.043264389E0
2.629473130E-1,1.177947283E0,9.504981041E-1,6.253953934E0
2.649613460E-1,1.165976286E0,5.003881454E-1,6.720823288E0
2.669723790E-1,1.055842996E0,2.154781520E-1,7.125443459E0
2.689834450E-1,9.313444495E-1,1.077390760E-1,7.295432091E0
2.709945110E-1,6.607996821E-1,1.197100803E-2,7.609072208E0
2.730056110E-1,4.094084799E-1,1.029506698E-1,7.884405613E0
2.750167770E-1,2.178723514E-1,1.867477298E-1,7.992144585E0
2.770279770E-1,1.125274822E-1,4.501099288E-1,8.085518837E0
2.790392770E-1,-1.628057212E-1,8.643068075E-1,8.013691902E0
2.810505430E-1,-5.219359994E-1,1.338358760E0,7.707234383E0
2.830617760E-1,-7.445967197E-1,1.558625340E0,7.470208645E0
2.850730420E-1,-1.216254473E0,2.044648170E0,6.967426300E0
2.870935080E-1,-1.551442742E0,2.633621931E0,6.445490360E0
2.891140740E-1,-1.687912226E0,3.229778051E0,5.892429829E0
2.911346740E-1,-1.671152830E0,3.495534420E0,5.626673222E0
2.931553070E-1,-1.513135433E0,3.957615376E0,5.147832870E0
2.951759730E-1,-1.177947283E0,4.398148537E0,4.671087742E0
2.971966060E-1,-9.097966552E-1,4.680664539E0,4.431667328E0
2.992172720E-1,-7.182605099E-3,5.439925671E0,3.842693806E0
3.012380050E-1,2.992752194E-1,5.672163010E0,3.739742994E0
3.032586710E-1,5.746083856E-1,5.897218227E0,3.655946016E0
3.052793370E-1,1.151610970E0,6.423942566E0,3.519476414E0
3.073000370E-1,1.714248419E0,6.936301708E0,3.445256233E0
3.093207370E-1,2.193088770E0,7.192481041E0,3.462015629E0
3.113414370E-1,2.379836559E0,7.652167797E0,3.617638826E0
3.133621370E-1,2.691082716E0,8.068758965E0,3.742137194E0
3.153828370E-1,2.863465309E0,8.475772858E0,3.768473387E0
3.174036030E-1,2.923320293E0,8.648156166E0,3.754108191E0
3.194243690E-1,3.031059265E0,8.830115318E0,3.749319792E0
3.223573690E-1,3.088520288E0,8.880393028E0,3.787626982E0
3.244928660E-1,3.057395458E0,8.808567047E0,3.770867586E0
3.265048660E-1,2.980781078E0,8.609848976E0,3.632004023E0
3.285168660E-1,2.935291290E0,8.475772858E0,3.529053211E0
3.305283660E-1,2.784456491E0,8.121431351E0,3.277662039E0
3.325396990E-1,2.485181332E0,7.671321392E0,3.040636063E0
3.345509490E-1,2.116474390E0,7.410353661E0,2.889801502E0
3.365621490E-1,1.927332401E0,6.823774338E0,2.825158119E0
3.385734820E-1,1.608903527E0,6.222829342E0,2.760514498E0
3.405849100E-1,1.388636947E0,5.605125427E0,2.767697096E0
3.425964100E-1,1.312022567E0,5.308244228E0,2.808398485E0
3.446079650E-1,1.209071875E0,4.730942726E0,2.990357876E0
3.466194650E-1,1.139639974E0,4.189853191E0,3.303998232E0
3.486310100E-1,1.130063176E0,3.926490784E0,3.509899616E0
3.506426760E-1,1.134851575E0,3.471592426E0,4.077325344E0
3.526544450E-1,1.261744261E0,3.033453465E0,5.145438671E0
3.546662300E-1,1.359906554E0,2.817975283E0,5.777507782E0
3.566779630E-1,1.580173135E0,2.444479942E0,6.974608898E0
3.586895880E-1,1.836352706E0,2.152387381E0,8.123826027E0
3.607011760E-1,2.085349798E0,1.798045516E0,9.299378395E0
3.627126200E-1,2.217030764E0,1.606509328E0,9.881169319E0
3.647239350E-1,2.542642117E0,1.225831270E0,1.102559853E1
3.667351850E-1,2.944868088E0,8.882488012E-1,1.207665253E1
3.687482320E-1,3.167528868E0,7.422025204E-1,1.256028175E1
3.707593680E-1,3.560178041E0,5.099649429E-1,1.343177128E1
3.727704980E-1,3.967192173E0,3.399766386E-1,1.417636776E1
3.747815810E-1,4.187458992E0,2.418143749E-1,1.445170116E1
3.767926210E-1,4.613626480E0,8.858546615E-2,1.481352425E1
3.788036590E-1,4.999392509E0,-3.112462163E-2,1.506491566E1
3.808146960E-1,5.155015469E0,-6.943184882E-2,1.515110683E1
3.828257310E-1,5.392041683E0,-5.746084079E-2,1.531870079E1
3.848367650E-1,5.497386456E0,-1.867477298E-1,1.558445740E1
3.868477980E-1,5.523722649E0,-2.489969730E-1,1.572092724E1
3.888587980E-1,5.669768810E0,-3.734954596E-1,1.608484650E1
3.908697980E-1,5.904400826E0,-5.195417404E-1,1.667142487E1
3.928808310E-1,6.167762756E0,-6.009446383E-1,1.720293808E1
3.948918970E-1,6.301837921E0,-7.685387731E-1,1.740883827E1
3.969029630E-1,6.584353924E0,-9.768342972E-1,1.770572090E1
3.989140290E-1,6.888417721E0,-1.278503656E0,1.790683365E1
4.009250950E-1,7.041646481E0,-1.458068848E0,1.802175522E1
4.029643610E-1,7.472602844E0,-2.047042370E0,1.842398071E1
4.050036610E-1,7.585130215E0,-2.248155355E0,1.858439255E1
4.070429610E-1,7.738358974E0,-2.645592928E0,1.890282059E1
4.090821940E-1,7.831733227E0,-3.050212860E0,1.915660667E1
4.111212940E-1,7.838915825E0,-3.246537447E0,1.928349876E1
4.131602940E-1,7.822156429E0,-3.620033026E0,1.954925537E1
4.151992600E-1,7.704840183E0,-4.010287762E0,1.978628159E1
4.172382600E-1,7.570765018E0,-4.242525578E0,1.981261826E1
4.192772260E-1,7.489362240E0,-4.675876141E0,1.975994492E1
4.213161920E-1,7.305008888E0,-5.011363506E0,2.003049088E1
4.233552250E-1,7.211634636E0,-5.059247494E0,2.015977669E1
4.253942910E-1,7.027281284E0,-5.049670696E0,2.031300545E1
4.274333570E-1,6.359299183E0,-4.790797710E0,2.075353813E1
4.294711570E-1,5.921160221E0,-4.707000732E0,2.107915115E1
4.315102900E-1,5.834969044E0,-4.730942726E0,2.112703514E1
4.335494230E-1,5.595548630E0,-4.812345505E0,2.110309219E1
4.355885890E-1,4.996998310E0,-4.860229492E0,2.136645508E1
4.376277550E-1,4.721365929E0,-4.862623692E0,2.143828011E1
4.396669210E-1,4.474762917E0,-4.872200489E0,2.101450729E1
4.417060540E-1,4.577713490E0,-4.941931725E0,2.019569016E1
4.437451200E-1,4.675876141E0,-4.994604111E0,1.980543518E1
4.457841530E-1,4.639962673E0,-5.111919880E0,1.934095955E1
4.478230860E-1,4.407725334E0,-5.284302235E0,1.885254288E1
4.498680190E-1,4.144362926E0,-5.301061630E0,1.851735497E1
4.519129520E-1,4.043806553E0,-5.250783443E0,1.845031738E1
4.539578180E-1,3.847482204E0,-5.018546104E0,1.838088417E1
4.560026180E-1,3.569754839E0,-4.515464306E0,1.787331390E1
4.580474180E-1,3.433285236E0,-4.259284973E0,1.757643318E1
4.600921840E-1,3.234566450E0,-3.778050184E0,1.733222389E1
4.621368840E-1,3.292027235E0,-3.392583847E0,1.730588913E1
4.641533170E-1,3.399766445E0,-3.239354849E0,1.732504272E1
4.661696500E-1,3.632004023E0,-3.033453465E0,1.729870605E1
4.681859500E-1,3.794809580E0,-2.918531895E0,1.711914062E1
4.702022830E-1,3.864241600E0,-2.861071110E0,1.701618958E1
4.722186830E-1,3.885789394E0,-2.844311714E0,1.702816010E1
4.742351160E-1,3.902548790E0,-2.794033289E0,1.707365036E1
4.762514820E-1,3.924096584E0,-2.710236311E0,1.700900650E1
4.782678150E-1,3.938461781E0,-2.674323320E0,1.693239212E1
4.802842810E-1,3.995922565E0,-2.576161146E0,1.674085617E1
4.823007470E-1,4.015076160E0,-2.475604534E0,1.652058983E1
4.843171800E-1,4.003105164E0,-2.422932148E0,1.640088081E1
4.863336800E-1,3.962403774E0,-2.334346771E0,1.612794113E1
4.883502130E-1,3.892971992E0,-2.229001760E0,1.584063721E1
4.903667460E-1,3.857059002E0,-2.164358377E0,1.570177364E1
4.923832460E-1,3.806780815E0,-2.044648170E0,1.548150635E1
4.943997790E-1,3.775655985E0,-1.915361404E0,1.526124001E1
4.964163450E-1,3.732560396E0,-1.848323703E0,1.508406925E1
4.984329780E-1,3.703830004E0,-1.704671621E0,1.501463699E1
5.004496440E-1,3.636792421E0,-1.570596337E0,1.488774490E1
5.024663770E-1,3.514688015E0,-1.455674648E0,1.478958225E1
5.044832100E-1,3.438073635E0,-1.400607944E0,1.474409294E1
5.065001100E-1,3.270479441E0,-1.335964561E0,1.463844872E1
5.085171100E-1,3.114856482E0,-1.209071875E0,1.456422806E1
5.105281430E-1,3.047818661E0,-1.142034173E0,1.452352715E1
5.125391760E-1,2.944868088E0,-1.029506683E0,1.436072063E1
5.145502420E-1,2.834734917E0,-9.289502501E-1,1.406862831E1
5.165614420E-1,2.762908697E0,-9.002198577E-1,1.392737103E1
5.185726420E-1,2.655169725E0,-8.451532125E-1,1.367119122E1
5.205838750E-1,2.619256735E0,-8.068459630E-1,1.334797382E1
5.225951750E-1,2.602497339E0,-7.876923680E-1,1.292898846E1
5.246064410E-1,2.638410330E0,-7.517793179E-1,1.267520332E1
5.266177410E-1,2.729389906E0,-7.398083210E-1,1.210777760E1
5.286290070E-1,2.815581083E0,-6.679822803E-1,1.152119827E1
5.306464400E-1,2.853888512E0,-6.368576288E-1,1.121713448E1
5.326639060E-1,2.918531895E0,-5.602431893E-1,1.061379528E1
5.346813720E-1,2.940079689E0,-4.453215301E-1,1.015171432E1
5.366989050E-1,2.961627483E0,-3.711012602E-1,9.960178375E0
5.387164380E-1,3.023876667E0,-2.082955539E-1,9.653720856E0
5.407339040E-1,3.074155092E0,-2.633621916E-2,9.462183952E0
5.427513370E-1,3.143586874E0,1.699883193E-1,9.347262383E0
5.447688370E-1,3.174711466E0,2.753331959E-1,9.308955193E0
5.467863370E-1,3.296815634E0,4.644751251E-1,9.241917610E0
5.488038370E-1,3.447650433E0,6.224924326E-1,9.158121109E0
5.508213370E-1,3.517082214E0,6.631938815E-1,9.119813919E0
5.528388700E-1,3.639186621E0,7.565677166E-1,9.043199539E0
5.548564030E-1,3.725377798E0,8.451532125E-1,9.002497673E0
5.568739030E-1,3.746925592E0,8.762778044E-1,9.004891396E0
5.588913690E-1,3.782838583E0,9.217676520E-1,9.012074471E0
5.609088350E-1,3.806780815E0,9.744400978E-1,9.002497673E0
5.629262680E-1,3.813963413E0,9.959878922E-1,9.007286072E0
5.649719680E-1,3.845088005E0,1.043871999E0,8.997709274E0
5.670177010E-1,3.804386616E0,1.048660398E0,8.990526199E0
5.690634670E-1,3.782838583E0,1.027112484E0,8.978555679E0
5.711092670E-1,3.770867586E0,9.696516991E-1,8.949825287E0
5.731550670E-1,3.751713991E0,9.385270476E-1,8.887576103E0
5.752009000E-1,3.742137194E0,9.145850539E-1,8.851662636E0
5.772466660E-1,3.687070608E0,8.259995580E-1,8.751106262E0
5.792924320E-1,3.627215624E0,7.637503147E-1,8.636184692E0
5.813381980E-1,3.574543238E0,7.398083210E-1,8.561964989E0
5.833839310E-1,3.450044632E0,6.679822803E-1,8.432677269E0
5.854297310E-1,3.423708439E0,6.871358752E-1,8.324938774E0
5.874755640E-1,3.414131641E0,7.254431248E-1,8.274660110E0
5.895214640E-1,3.383007050E0,7.805097699E-1,8.248324394E0
5.915612300E-1,3.414131641E0,8.044517636E-1,8.269871712E0
5.936009630E-1,3.497928619E0,8.355764151E-1,8.317755699E0
5.956406630E-1,3.552995205E0,9.050082564E-1,8.339303970E0
5.976803630E-1,3.734954596E0,1.000776291E0,8.401553154E0
5.997200630E-1,4.027047157E0,1.125274777E0,8.502109528E0
6.017597960E-1,4.209006786E0,1.173158884E0,8.533234596E0
6.037995960E-1,4.690241337E0,1.484405041E0,8.399158478E0
6.058392960E-1,4.769249916E0,1.671152830E0,8.233959198E0
6.078789290E-1,4.797980309E0,1.884236693E0,8.011298180E0
6.099185290E-1,4.711789131E0,2.408566952E0,7.422324657E0
6.119580950E-1,4.390965939E0,2.978386879E0,6.684910297E0
6.139977280E-1,4.168305397E0,3.253720045E0,6.304232121E0
6.160373280E-1,3.648763418E0,3.761290789E0,5.578789234E0
6.180769940E-1,3.126827478E0,4.163516521E0,4.944325924E0
6.201166600E-1,2.868253708E0,4.316745758E0,4.649539471E0
6.221562930E-1,2.382230759E0,4.596867085E0,4.151545525E0
6.241959260E-1,1.941697598E0,4.812345505E0,3.761290789E0
6.262072920E-1,1.546654344E0,4.893748283E0,3.462015629E0
6.282185920E-1,1.376665950E0,4.989815712E0,3.347094059E0
6.302298580E-1,1.072602391E0,5.004180908E0,3.131615877E0
6.322410910E-1,7.948749661E-1,4.941931725E0,2.944868088E0
6.342523570E-1,6.679822803E-1,4.898836136E0,2.873042107E0
6.362635900E-1,4.118026793E-1,4.762067318E0,2.719813108E0
6.382748230E-1,1.891419291E-1,4.556165695E0,2.561795712E0
6.402860560E-1,8.619125932E-2,4.467580318E0,2.499546528E0
6.422972560E-1,-1.316810995E-1,4.259284973E0,2.353500366E0
6.443084560E-1,-3.663128614E-1,4.079719543E0,2.250549555E0
6.472404560E-1,-6.368576288E-1,3.957615376E0,2.243366957E0
6.492498660E-1,-8.307880163E-1,3.924096584E0,2.279279947E0
6.512608660E-1,-1.082179189E0,3.912125587E0,2.387019157E0
6.532718660E-1,-1.216254473E0,3.914519787E0,2.446874142E0
6.552833660E-1,-1.482010841E0,3.888183594E0,2.585737944E0
6.572950320E-1,-1.769315004E0,3.811569214E0,2.681505919E0
6.593062820E-1,-1.910573006E0,3.761290789E0,2.693476915E0
6.613176820E-1,-2.185906172E0,3.655946016E0,2.549824715E0
6.633290150E-1,-2.403778553E0,3.538630009E0,2.128445387E0
6.653404430E-1,-2.640804529E0,3.428496838E0,1.417367458E0
6.673579430E-1,-2.774879694E0,3.356670856E0,9.983820915E-1
6.693748310E-1,-3.069366693E0,3.201047659E0,7.422025502E-2
6.713912310E-1,-3.394978046E0,3.114856482E0,-8.762778044E-1
6.734072310E-1,-3.576937437E0,2.942473888E0,-1.335964561E0
6.754228140E-1,-3.979163170E0,2.734178305E0,-2.243366957E0
6.774380440E-1,-4.450820923E0,2.545036316E0,-3.148375273E0
6.794529720E-1,-4.704606533E0,2.463633537E0,-3.586514235E0
6.814677050E-1,-5.245995045E0,2.291250944E0,-4.467580318E0
6.834822050E-1,-5.866093636E0,2.142810583E0,-5.348946095E0
6.854964400E-1,-6.184522152E0,2.070984364E0,-5.808632374E0
6.875103840E-1,-6.778284073E0,1.970427990E0,-6.775889874E0
6.895241200E-1,-7.314585686E0,1.886630893E0,-7.678503990E0
6.915376700E-1,-7.542034626E0,1.848323703E0,-8.142979622E0
6.935595270E-1,-7.922712803E0,1.769315004E0,-9.057564735E0
6.955809810E-1,-8.231564522E0,1.685518026E0,-9.823708534E0
6.976020240E-1,-8.482955933E0,1.599326730E0,-1.039831734E1
6.996227320E-1,-8.585906982E0,1.563413739E0,-1.061140156E1
7.016430520E-1,-8.767866135E0,1.508347034E0,-1.088194561E1
7.036630520E-1,-8.892364502E0,1.448492050E0,-1.092504120E1
7.056827920E-1,-8.966584206E0,1.412579060E0,-1.088673401E1
7.077022200E-1,-9.184456825E0,1.343147159E0,-1.073350525E1
7.097213920E-1,-9.498097420E0,1.295263171E0,-1.049647999E1
7.117403250E-1,-9.689633369E0,1.273715258E0,-1.036479855E1
7.137592250E-1,-1.010622501E1,1.209071875E0,-1.006312943E1
7.157780910E-1,-1.057788277E1,1.120486379E0,-9.723152161E0
7.177969240E-1,-1.103517532E1,1.070208192E0,-9.318531990E0
7.198157900E-1,-1.128656578E1,9.193734527E-1,-9.095871925E0
7.218345900E-1,-1.181329060E1,7.182605267E-1,-8.650549889E0
7.238533900E-1,-1.233762074E1,4.548983276E-1,-8.224382401E0
7.258721230E-1,-1.290265179E1,8.379705995E-2,-7.858069420E0
7.278911560E-1,-1.319235039E1,-1.125274822E-1,-7.714416981E0
7.299081560E-1,-1.381723690E1,-5.243301988E-1,-7.534852028E0
7.319251560E-1,-1.413327217E1,-7.469909191E-1,-7.496544838E0
7.339421220E-1,-1.476324654E1,-1.209071875E0,-7.491756439E0
7.359590880E-1,-1.539052677E1,-1.771709204E0,-7.237970829E0
7.379760540E-1,-1.569937897E1,-2.121262789E0,-6.888417721E0
7.399930200E-1,-1.629553604E1,-2.923320293E0,-6.105513573E0
7.420100200E-1,-1.684859657E1,-3.617638826E0,-5.973832607E0
7.440270530E-1,-1.720533180E1,-3.818751812E0,-6.498162746E0
7.460441530E-1,-1.820610809E1,-3.888183594E0,-8.573935509E0
7.480613530E-1,-1.932898903E1,-3.773261786E0,-1.086039829E1
7.500786190E-1,-2.022442055E1,-3.866635799E0,-1.264647293E1
7.520959520E-1,-2.048299408E1,-4.017470360E0,-1.332403183E1
7.541073850E-1,-2.064101219E1,-4.431667328E0,-1.435593224E1
7.561187850E-1,-2.039919662E1,-4.788403511E0,-1.511998272E1
7.581301850E-1,-2.018371964E1,-4.934749126E0,-1.545995903E1
7.601415180E-1,-1.959713936E1,-5.123890877E0,-1.611836433E1
7.621529180E-1,-1.868494797E1,-5.296273232E0,-1.651340675E1
7.641643180E-1,-1.818695450E1,-5.368099689E0,-1.648707199E1
7.661756840E-1,-1.704252625E1,-5.602731228E0,-1.611597061E1
7.681869840E-1,-1.592443371E1,-5.921160221E0,-1.517026043E1
7.701982500E-1,-1.541207504E1,-6.048052788E0,-1.467914963E1
7.722094500E-1,-1.438705730E1,-6.280290127E0,-1.385075569E1
7.742301830E-1,-1.329290676E1,-6.562806129E0,-1.302475643E1
7.762509830E-1,-1.208862400E1,-6.948272705E0,-1.196173096E1
7.782717830E-1,-1.140388203E1,-7.182904243E0,-1.134642124E1
7.802926160E-1,-9.888352394E0,-7.683292389E0,-9.952995300E0
7.823135490E-1,-8.166921616E0,-8.162133217E0,-8.423100471E0
7.843345150E-1,-6.306626320E0,-8.377611160E0,-6.787860870E0
7.863555480E-1,-4.383783340E0,-8.846874237E0,-5.054459095E0
7.883746810E-1,-3.406949043E0,-8.930671692E0,-4.151545525E0
7.903958810E-1,-1.431732655E0,-8.976161003E0,-2.240972757E0
7.924170140E-1,-4.429273009E-1,-8.949825287E0,-1.268926859E0
7.944381470E-1,1.486799240E0,-8.863634109E0,5.482721925E-1
7.964593130E-1,3.157952070E0,-8.655338287E0,2.619256735E0
7.984804460E-1,4.000710964E0,-8.490138054E0,3.797203779E0
8.005016120E-1,5.887641430E0,-8.111854553E0,6.148609161E0
8.025227780E-1,8.162133217E0,-7.733570576E0,8.250718117E0
8.045439440E-1,9.433453560E0,-7.570765018E0,9.213187218E0
8.065651440E-1,1.223227596E1,-7.281066418E0,1.109263611E1
8.086145770E-1,1.689408493E1,-6.988974094E0,1.384836197E1
8.106640430E-1,1.848862457E1,-6.507739544E0,1.475127506E1
8.127134760E-1,2.162502861E1,-5.842151642E0,1.646791840E1
8.147629420E-1,2.443103218E1,-5.064035892E0,1.799541855E1
8.168124080E-1,2.572898865E1,-4.656722069E0,1.867297745E1
8.188618740E-1,2.802742386E1,-3.840299606E0,1.988204956E1
8.209113070E-1,3.003855324E1,-2.853888512E0,2.109590912E1
8.229607400E-1,3.095074272E1,-2.317587137E0,2.174473763E1
8.250101060E-1,3.259316635E1,-1.185129881E0,2.315731812E1
8.270594720E-1,3.399137878E1,1.077390760E-1,2.475933838E1
8.291089050E-1,3.460938263E1,8.259995580E-1,2.561885643E1
8.311583050E-1,3.564367676E1,2.300827742E0,2.734746933E1
8.332077050E-1,3.625659180E1,3.749319792E0,2.898270988E1
8.352476380E-1,3.640024567E1,4.443638325E0,2.979195023E1
8.372875040E-1,3.640503311E1,5.700893402E0,3.121410561E1
8.393273700E-1,3.606266403E1,6.665756702E0,3.244951248E1
8.413672030E-1,3.543538284E1,7.338527679E0,3.363943100E1
8.434069360E-1,3.499245453E1,7.573159218E0,3.420206833E1
8.454466690E-1,3.385969925E1,7.795820236E0,3.524384689E1
8.474864020E-1,3.244951248E1,7.723993778E0,3.612969971E1
8.495260350E-1,3.162830162E1,7.597101212E0,3.655107880E1
8.515656010E-1,2.983743858E1,7.204452038E0,3.728131104E1
8.536051670E-1,2.795320320E1,6.687304497E0,3.775775909E1
8.556463670E-1,2.698355103E1,6.380846977E0,3.790380478E1
8.576859670E-1,2.507297897E1,5.717652798E0,3.799478531E1
8.597256330E-1,2.328181648E1,4.980238914E0,3.779367065E1
8.617653330E-1,2.240314293E1,4.620809078E0,3.757101059E1
8.638050330E-1,2.073438454E1,3.866635799E0,3.689584351E1
8.658447330E-1,1.919970131E1,3.134010077E0,3.578254318E1
8.678843990E-1,1.779909325E1,2.525882721E0,3.436278152E1
8.698958320E-1,1.713590050E1,2.281674147E0,3.356999969E1
8.719071980E-1,1.590288639E1,1.977610588E0,3.188927078E1
8.739185980E-1,1.483746624E1,1.865083098E0,3.018459892E1
8.759299980E-1,1.436072063E1,1.884236693E0,2.935859871E1
8.779413640E-1,1.353232765E1,2.068590164E0,2.776645470E1
8.799527640E-1,1.282364368E1,2.377442360E0,2.631077957E1
8.819641970E-1,1.249084949E1,2.592920542E0,2.564998055E1
8.839755970E-1,1.189708710E1,3.066972494E0,2.444300461E1
8.859870300E-1,1.153795719E1,3.641580820E0,2.344222832E1
8.879984960E-1,1.147570801E1,3.998316765E0,2.312858772E1
8.900382620E-1,1.152598667E1,5.257966042E0,2.196500587E1
8.920781280E-1,1.148767948E1,5.540482044E0,2.134490585E1
8.941180940E-1,1.147570801E1,5.839757442E0,1.988683701E1
8.961580600E-1,1.149725628E1,5.911583424E0,1.879268837E1
8.981980600E-1,1.148289108E1,5.612308025E0,1.811512947E1
9.002380600E-1,1.152119827E1,5.672163010E0,1.775839233E1
9.022780600E-1,1.166724396E1,6.330568790E0,1.697309494E1
9.043181260E-1,1.225142956E1,7.178115845E0,1.592682838E1
9.063581920E-1,1.258182907E1,6.656179905E0,1.546714115E1
9.083982580E-1,1.238550472E1,5.157409668E0,1.430804825E1
9.104384240E-1,1.246211910E1,4.987421513E0,1.369513321E1
9.124786240E-1,1.256267548E1,4.891354084E0,1.299842072E1
9.145189240E-1,1.207186413E1,4.853046894E0,1.208622932E1
9.165576240E-1,1.110700130E1,4.642356873E0,1.174625301E1
9.185979240E-1,9.955389977E0,4.766855717E0,1.087715721E1
9.206381900E-1,9.349657059E0,4.965873718E0,1.059464169E1
9.226783900E-1,8.063970566E0,4.807557106E0,1.032409668E1
9.247185560E-1,6.809409142E0,5.028122902E0,9.471760750E0
9.267587220E-1,6.234800339E0,5.064035892E0,9.213187218E0
9.287988880E-1,5.111919880E0,5.147832870E0,8.882787704E0
9.308389540E-1,4.129997730E0,5.296273232E0,8.399158478E0
9.328789870E-1,3.684676409E0,5.360917091E0,8.243535995E0
9.349190200E-1,2.875436306E0,5.578789234E0,8.044816971E0
9.369616860E-1,2.140416384E0,5.904400826E0,7.925107002E0
9.390044520E-1,1.877054095E0,5.990592003E0,7.905953407E0
9.410472180E-1,1.522712231E0,6.071994781E0,7.961019993E0
9.430900180E-1,1.259350061E0,6.019322395E0,8.202834129E0
9.451328180E-1,1.070208192E0,5.964255810E0,8.399158478E0
9.471756510E-1,9.624691010E-1,5.842151642E0,8.487744331E0
9.492184510E-1,6.392518282E-1,5.708076000E0,8.549993515E0
9.512330170E-1,2.801215947E-1,5.478232861E0,8.468590736E0
9.532475500E-1,7.422025502E-2,5.325003624E0,8.432677269E0
9.552620500E-1,-2.681505978E-1,4.908412933E0,8.504503250E0
9.572765500E-1,-5.075707436E-1,4.496310711E0,8.468590736E0
9.592910830E-1,-6.009446383E-1,4.338293552E0,8.375216484E0
9.613056830E-1,-6.919242740E-1,4.058171749E0,8.071153641E0
9.633203160E-1,-7.158663273E-1,3.895366192E0,7.723993778E0
9.653349490E-1,-7.493851185E-1,3.852270603E0,7.577947617E0
9.673496150E-1,-8.236053586E-1,3.828328609E0,7.355287075E0
9.693642810E-1,-6.823474765E-1,3.837905407E0,7.058405876E0
9.713789140E-1,-6.823474765E-1,3.837905407E0,7.058405876E0
9.733935800E-1,-5.027823448E-1,3.821146011E0,6.857293129E0
9.754082130E-1,-4.932055473E-1,3.634398222E0,6.766313076E0
9.774228790E-1,-6.607996821E-1,3.251325846E0,6.651391506E0
9.794375450E-1,-7.709329724E-1,3.114856482E0,6.526893139E0
9.814522780E-1,-1.017535686E0,3.007117271E0,6.095936775E0
9.834670440E-1,-1.321599364E0,3.023876667E0,5.425560474E0
9.854818440E-1,-1.498770237E0,3.069366693E0,5.064035892E0
9.874966440E-1,-1.860294700E0,3.162740469E0,4.343081951E0
9.895114440E-1,-2.188300371E0,3.181894064E0,3.627215624E0
9.915263100E-1,-2.348711967E0,3.157952070E0,3.236960649E0
9.935412430E-1,-2.628833532E0,3.009511471E0,2.408566952E0
9.955561760E-1,-2.875436306E0,2.839523315E0,1.551442742E0
9.975685090E-1,-2.995146275E0,2.765302896E0,1.154005170E0
9.995808090E-1,-3.260902643E0,2.734178305E0,4.213795066E-1
1.001593142E0,-3.457227230E0,2.750937700E0,-2.346317619E-1
1.003605475E0,-3.643975019E0,2.786850691E0,-7.613561153E-1
1.005617808E0,-3.732560396E0,2.798821688E0,-9.911994934E-1
1.007630141E0,-3.885789394E0,2.803610086E0,-1.391031146E0
1.009642474E0,-4.074931145E0,2.765302896E0,-1.726219416E0
1.011654707E0,-4.187458992E0,2.707842112E0,-1.877054095E0
1.013666907E0,-4.460397720E0,2.580949545E0,-2.157175779E0
1.015679073E0,-4.812345505E0,2.422932148E0,-2.353500366E0
1.017700073E0,-5.248389244E0,2.195482969E0,-2.485181332E0
1.019721073E0,-5.485415459E0,2.037465572E0,-2.559401512E0
1.021742006E0,-5.981015205E0,1.659181833E0,-2.815581083E0
1.023762872E0,-6.534075737E0,1.216254473E0,-3.181894064E0
1.025783772E0,-6.818985939E0,9.768342972E-1,-3.378218651E0
1.027804638E0,-7.386411667E0,4.333505034E-1,-3.857059002E0
1.029825504E0,-8.018480301E0,-1.149216816E-1,-4.395754337E0
1.031848204E0,-8.380004883E0,-3.543418646E-1,-4.675876141E0
1.033870870E0,-9.335291862E0,-7.230489254E-1,-5.250783443E0
1.035893536E0,-1.047493172E1,-9.409212470E-1,-5.894824028E0
1.037916169E0,-1.168160915E1,-1.003170490E0,-6.629843712E0
1.039938835E0,-1.222988129E1,-1.005564690E0,-7.000945091E0
1.041961501E0,-1.325699425E1,-8.930372596E-1,-7.721599579E0
1.043984167E0,-1.412369537E1,-7.278373241E-1,-8.308178902E0
1.046006800E0,-1.449958515E1,-6.440402865E-1,-8.547599792E0
1.048029466E0,-1.508406925E1,-5.195417404E-1,-8.885181427E0
1.050052132E0,-1.541925716E1,-5.147533417E-1,-9.067141533E0
1.052103065E0,-1.547671795E1,-6.536170840E-1,-9.079112053E0
1.054154031E0,-1.523729801E1,-9.528923035E-1,-8.822932243E0
1.056205031E0,-1.499787807E1,-1.173158884E0,-8.597877502E0
1.058255997E0,-1.431523132E1,-1.687912226E0,-7.989750385E0
1.060306997E0,-1.340782833E1,-2.171540976E0,-7.266701221E0
1.062357997E0,-1.225861168E1,-2.559401512E0,-6.486191750E0
1.064409030E0,-1.156908226E1,-2.707842112E0,-6.095936775E0
1.066460096E0,-9.969755173E0,-2.906560898E0,-5.303455830E0
1.068511229E0,-8.138191223E0,-2.990357876E0,-4.477157116E0
1.070562395E0,-7.168539047E0,-2.992752075E0,-4.050989151E0
1.072613695E0,-5.068824291E0,-2.904166698E0,-3.093308687E0
1.074665061E0,-2.748543501E0,-2.600103140E0,-2.032677174E0
1.076716461E0,-1.496376038E0,-2.360682964E0,-1.470039845E0
1.078759061E0,1.211466074E0,-1.642422318E0,-2.896983922E-1
1.080801627E0,4.139574528E0,-6.607996821E-1,9.983820915E-1
1.082844260E0,5.688922405E0,-8.619125932E-2,1.668758631E0
1.084887026E0,8.813355446E0,1.264138460E0,2.987963676E0
1.086929792E0,1.164090824E1,2.782062292E0,4.254496574E0
1.088972592E0,1.432720184E1,3.572149038E0,5.619490623E0
1.091015425E0,1.695394135E1,6.139032364E0,7.285854816E0
1.093056325E0,1.817737770E1,6.981791496E0,8.214805603E0
1.095097191E0,2.055960846E1,8.552388191E0,1.004636955E1
1.097138024E0,2.177107430E1,9.318531990E0,1.090828228E1
1.099179090E0,2.404317284E1,1.063294888E1,1.248366737E1
1.101219923E0,2.609051323E1,1.154753399E1,1.379808331E1
1.103260723E0,2.698594475E1,1.187075138E1,1.425777054E1
1.105301489E0,2.846077347E1,1.227537155E1,1.477282333E1
1.107342255E0,2.936817551E1,1.238789845E1,1.488535023E1
1.109383021E0,2.959323120E1,1.236874485E1,1.483028412E1
1.111423821E0,2.950225067E1,1.218918037E1,1.461690044E1
1.113436421E0,2.859245491E1,1.188511658E1,1.439423943E1
1.115449021E0,2.783828163E1,1.171033955E1,1.432001972E1
1.117461621E0,2.583193970E1,1.128656578E1,1.417157936E1
1.119474287E0,2.336082458E1,1.070477486E1,1.396807194E1
1.121486920E0,2.063382912E1,9.943418503E0,1.372386360E1
1.123499553E0,1.919252014E1,9.514857292E0,1.365682602E1
1.125512186E0,1.607766342E1,8.561964989E0,1.359218216E1
1.127524752E0,1.264407825E1,7.501333237E0,1.357302856E1
1.129537252E0,1.088673401E1,6.988974094E0,1.362330723E1
1.131549685E0,7.403171062E0,6.004957199E0,1.385554409E1
1.134485685E0,4.383783340E0,5.116708279E0,1.425298214E1
1.136468866E0,2.190694571E0,4.259284973E0,1.470788002E1
1.138479866E0,6.847416759E-1,3.371036053E0,1.506012726E1
1.140490866E0,-5.027823448E-1,2.446874142E0,1.526842308E1
1.142502366E0,-1.079784989E0,1.996764183E0,1.533306599E1
1.144514366E0,-2.257732153E0,1.194706678E0,1.533546066E1
1.146526366E0,-3.454833031E0,5.315127969E-1,1.517744350E1
1.148538366E0,-4.029441357E0,2.729389966E-1,1.504576206E1
1.150550199E0,-5.143044472E0,-5.267243832E-2,1.461211205E1
1.152562199E0,-6.093542576E0,-1.340752989E-1,1.393215942E1
1.154578949E0,-6.502951145E0,-1.029506698E-1,1.349641418E1
1.156595393E0,-7.223605633E0,7.422025502E-2,1.253155136E1
1.158611393E0,-7.712022781E0,3.495534360E-1,1.141345882E1
1.160626938E0,-7.910741806E0,5.123591423E-1,1.076941872E1
1.162642104E0,-8.214805603E0,9.193734527E-1,9.273042679E0
1.164657104E0,-8.408735275E0,1.391031146E0,7.680898190E0
1.166671818E0,-8.526051521E0,1.817199111E0,6.045658588E0
1.168686351E0,-8.583512306E0,2.018311977E0,5.200505257E0
1.170700726E0,-8.715193748E0,2.422932148E0,3.502717018E0
1.172714961E0,-8.849268913E0,2.837129116E0,1.759738207E0
1.174728961E0,-8.904335022E0,3.038241863E0,8.451532125E-1
1.176742855E0,-8.980949402E0,3.464409828E0,-1.094150186E0
1.178756605E0,-9.016862869E0,3.888183594E0,-3.157952070E0
1.180773747E0,-9.028834343E0,4.089296341E0,-4.185064793E0
1.182790701E0,-9.057564735E0,4.465186119E0,-6.218040943E0
1.184807396E0,-9.115025520E0,4.781220913E0,-8.109460831E0
1.186823896E0,-9.227552414E0,4.903624535E0,-9.835680008E0
1.188840216E0,-9.287407875E0,5.114314079E0,-1.056830597E1
1.190856331E0,-9.313743591E0,5.420772076E0,-1.144697762E1
1.192872331E0,-9.158121109E0,5.368099689E0,-1.233762074E1
1.194888188E0,-9.064746857E0,5.293879032E0,-1.270872211E1
1.196903912E0,-8.798990250E0,5.188534260E0,-1.292180538E1
1.198919512E0,-8.348880768E0,4.996998310E0,-1.262492466E1
1.200935145E0,-8.047211647E0,4.901230335E0,-1.235437965E1
1.202950778E0,-7.302614689E0,4.790797710E0,-1.152119827E1
1.204966444E0,-6.402394772E0,4.594472885E0,-1.043183613E1
1.206982077E0,-5.952284813E0,4.398148537E0,-9.852438927E0
1.208997710E0,-5.085583687E0,3.957615376E0,-8.502109528E0
1.211013376E0,-4.307168961E0,3.617638826E0,-6.783072472E0
1.213028976E0,-3.967192173E0,3.679888010E0,-4.675876141E0
1.215045276E0,-3.749319792E0,3.754108191E0,-3.555389643E0
1.217059509E0,-2.820369720E0,3.888183594E0,-1.347935557E0
1.219073775E0,-1.434126854E0,3.857059002E0,8.906430602E-1
1.221088075E0,-6.871358752E-1,3.773261786E0,2.030282974E0
1.223102475E0,7.996633649E-1,3.521870613E0,4.278438568E0
1.225116908E0,2.245761156E0,3.268085241E0,6.483797550E0
1.227131408E0,2.944868088E0,3.174711466E0,7.556399822E0
1.229145908E0,4.211400986E0,3.100491285E0,9.531616211E0
1.231160408E0,5.281908035E0,3.165134668E0,1.124825859E1
1.233174908E0,5.787084579E0,3.224989653E0,1.204074001E1
1.235189508E0,6.711246490E0,3.380612850E0,1.350838566E1
1.237204141E0,7.558794022E0,3.593696833E0,1.485422611E1
1.239218807E0,7.968202591E0,3.694253206E0,1.551741982E1
1.241231073E0,8.837297440E0,3.854664803E0,1.683662415E1
1.243243373E0,9.660902977E0,3.969586372E0,1.798823547E1
1.245255706E0,1.050605679E1,4.062960148E0,1.903450203E1
1.247268106E0,1.093461800E1,4.122815132E0,1.952531433E1
1.249280539E0,1.177498341E1,4.288015366E0,2.034891891E1
1.251293039E0,1.260337734E1,4.532223701E0,2.106478500E1
1.253305572E0,1.303912163E1,4.697423935E0,2.135208893E1
1.255318072E0,1.392976475E1,5.114314079E0,2.167051888E1
1.257330572E0,1.482549572E1,5.657797813E0,2.156756783E1
1.259343038E0,1.522532749E1,5.945102215E0,2.139997292E1
1.261364738E0,1.593879890E1,6.407183170E0,2.109830475E1
1.263386471E0,1.649185944E1,6.648997307E0,2.100493050E1
1.265408171E0,1.691084480E1,6.763918877E0,2.104084396E1
1.267429937E0,1.704731560E1,6.792649269E0,2.107675552E1
1.269451737E0,1.716702461E1,6.871658325E0,2.105999756E1
1.271473570E0,1.713829422E1,6.986579895E0,2.088282585E1
1.273495470E0,1.696112251E1,7.087136269E0,2.056200218E1
1.275515403E0,1.682944298E1,7.135020256E0,2.034173584E1
1.277537303E0,1.649425316E1,7.197269440E0,1.982458878E1
1.279559169E0,1.605611420E1,7.197269440E0,1.930265236E1
1.281581069E0,1.581190681E1,7.156568050E0,1.906562614E1
1.283602935E0,1.528997040E1,7.087136269E0,1.860354614E1
1.285624768E0,1.480873585E1,6.974608898E0,1.818934822E1
1.287646601E0,1.456422806E1,6.895600319E0,1.799781227E1
1.289668467E0,1.408538818E1,6.728005886E0,1.760755730E1
1.291690367E0,1.358021164E1,6.526893139E0,1.725321579E1
1.293712300E0,1.332882023E1,6.428730965E0,1.709759331E1
1.295762500E0,1.263450146E1,6.182127953E0,1.676240540E1
1.297812766E0,1.244775391E1,6.100725174E0,1.672170258E1
1.299863066E0,1.211974812E1,5.959467411E0,1.672649193E1
1.301913399E0,1.179892540E1,5.782296181E0,1.684380722E1
1.303963665E0,1.155471706E1,5.660192013E0,1.694915199E1
1.306013998E0,1.143979454E1,5.607519627E0,1.699224854E1
1.308064298E0,1.125304699E1,5.475838661E0,1.710956383E1
1.310114598E0,1.114770222E1,5.327397823E0,1.711674690E1
1.312164898E0,1.112136650E1,5.229235649E0,1.707365036E1
1.314215131E0,1.092743587E1,4.939537525E0,1.726997566E1
1.316265397E0,1.058985329E1,4.673481941E0,1.756446266E1
1.318315697E0,1.045098972E1,4.553771496E0,1.762671089E1
1.320365997E0,1.016368580E1,4.304774761E0,1.761234665E1
1.322407097E0,9.830891609E0,4.084507942E0,1.753573227E1
1.324448197E0,9.636960983E0,3.957615376E0,1.750939560E1
1.326489297E0,9.246706009E0,3.701435804E0,1.746869469E1
1.328530363E0,8.830115318E0,3.433285236E0,1.741123390E1
1.330571363E0,8.411129951E0,3.299209833E0,1.737771416E1
1.332612363E0,8.178892136E0,2.959233284E0,1.724842834E1
1.334653363E0,7.556399822E0,2.437297344E0,1.700182533E1
1.336694329E0,7.336133480E0,2.264914751E0,1.690845108E1
1.338735295E0,7.142202854E0,2.106897593E0,1.681028938E1
1.340776261E0,6.823774338E0,1.865083098E0,1.657565689E1
1.342818361E0,6.462249756E0,1.738190413E0,1.627638245E1
1.344859227E0,6.309020519E0,1.721431017E0,1.610400009E1
1.346900060E0,6.098330975E0,1.740584612E0,1.571613884E1
1.348940926E0,5.787084579E0,1.810016513E0,1.523729801E1
1.350981792E0,5.664980412E0,1.848323703E0,1.510322285E1
1.353022658E0,5.521328449E0,1.948880196E0,1.499069500E1
1.355063524E0,5.370493889E0,2.015917778E0,1.480634212E1
1.357076124E0,5.289090633E0,2.039859772E0,1.470309162E1
1.359088657E0,5.171774864E0,2.080561161E0,1.449958515E1
1.361101157E0,5.032911301E0,2.128445387E0,1.427213573E1
1.363113623E0,4.927566528E0,2.200271368E0,1.403510952E1
1.365126123E0,4.903624535E0,2.238578558E0,1.393215942E1
1.367138589E0,4.896441936E0,2.262520552E0,1.379808331E1
1.369151055E0,4.788403511E0,2.126051188E0,1.327135944E1
1.371163521E0,4.752490520E0,2.023100376E0,1.295771885E1
1.373175987E0,4.735731125E0,1.900996208E0,1.302954483E1
1.375188487E0,4.505887508E0,1.757344007E0,1.343655968E1
1.378120487E0,4.218583584E0,1.663970232E0,1.364964294E1
1.380115866E0,4.082113743E0,1.740584612E0,1.378850651E1
1.382127866E0,3.849876404E0,1.917755604E0,1.418115616E1
1.384138866E0,3.742137194E0,2.066195965E0,1.444451809E1
1.386150866E0,3.143586874E0,2.786850691E0,1.534982586E1
1.388163532E0,2.401384354E0,3.653551817E0,1.602738380E1
1.390176532E0,2.262520552E0,3.849876404E0,1.619737244E1
1.392189532E0,2.138022184E0,3.952826977E0,1.645834160E1
1.394202698E0,2.126051188E0,3.823540211E0,1.678155899E1
1.396215840E0,2.233790159E0,3.711012602E0,1.697548866E1
1.398228840E0,2.401384354E0,3.694253206E0,1.696112251E1
1.400241728E0,2.817975283E0,3.744531393E0,1.680071259E1
1.402254628E0,3.009511471E0,3.768473387E0,1.671930885E1
1.404267537E0,3.426102638E0,3.780444384E0,1.653256035E1
1.406280453E0,3.813963413E0,3.708618402E0,1.631468964E1
1.408293453E0,3.897760391E0,3.538630009E0,1.622131538E1
1.410306453E0,3.857059002E0,2.846705914E0,1.623328590E1
1.412319519E0,4.115632534E0,2.516305923E0,1.585739613E1
1.414332581E0,4.529829502E0,2.291250944E0,1.513195324E1
1.416345581E0,4.675876141E0,2.147598982E0,1.481113052E1
1.418358469E0,4.973056316E0,1.769315004E0,1.424579906E1
1.420371258E0,5.207687855E0,1.381454349E0,1.368795013E1
1.422383908E0,5.277119637E0,1.240196466E0,1.337430954E1
1.424404765E0,5.334580898E0,1.003170490E0,1.267520332E1
1.426425310E0,5.463867664E0,7.757213712E-1,1.176780033E1
1.428445483E0,5.614702225E0,6.057330370E-1,1.072871685E1
1.430465316E0,5.698499203E0,5.243301988E-1,1.021156979E1
1.432484876E0,5.839757442E0,3.495534360E-1,9.172486305E0
1.434504145E0,5.964255810E0,2.274491638E-1,8.233959198E0
1.436523145E0,6.009745598E0,1.963245422E-1,7.824550629E0
1.438541859E0,6.071994781E0,2.082955539E-1,7.228394032E0
1.440560307E0,6.105513573E0,2.513911724E-1,6.886023521E0
1.442578573E0,6.107907772E0,3.088520169E-1,6.790255070E0
1.444596873E0,6.100725174E0,4.309563041E-1,6.744765282E0
1.446615106E0,6.036081791E0,5.506663918E-1,6.864475727E0
1.448633239E0,6.004957199E0,5.746083856E-1,6.943484306E0
1.450651272E0,5.945102215E0,6.416460276E-1,7.111078262E0
1.452669305E0,5.882853031E0,6.655880809E-1,7.273883820E0
1.454687238E0,5.779901981E0,6.272808313E-1,7.364863873E0
1.456705138E0,5.720046997E0,5.458779931E-1,7.348104477E0
1.458724904E0,5.664980412E0,4.836287498E-1,7.305008888E0
1.460742737E0,5.564424038E0,3.782838583E-1,7.235576630E0
1.462760537E0,5.504569054E0,3.064578176E-1,7.211634636E0
1.464778303E0,5.411195278E0,1.508347094E-1,7.077559471E0
1.466796036E0,5.286696434E0,1.197100803E-2,6.857293129E0
1.468813669E0,5.198111057E0,-4.548983276E-2,6.728005886E0
1.470831235E0,4.973056316E0,-1.604115069E-1,6.455067158E0
1.472848768E0,4.577713490E0,-2.346317619E-1,6.232406139E0
1.474866234E0,4.302380562E0,-2.681505978E-1,6.155791759E0
1.476883667E0,3.639186621E0,-3.256114423E-1,5.997774601E0
1.478901067E0,2.822763920E0,-3.806780577E-1,5.832574844E0
1.480918500E0,1.814804912E0,-4.429273009E-1,5.743988991E0
1.482936000E0,1.256955862E0,-5.889736414E-1,5.518934250E0
1.484947666E0,8.379705995E-2,-7.852981687E-1,5.224447250E0
1.486959199E0,-1.086967587E0,-1.019929886E0,4.788403511E0
1.488970732E0,-1.647210717E0,-1.170764685E0,4.527435303E0
1.490982232E0,-2.652775526E0,-1.522712231E0,3.995922565E0
1.492993698E0,-3.414131641E0,-1.932120800E0,3.533841610E0
1.495005131E0,-3.734954596E0,-2.118868589E0,3.282450438E0
1.497016531E0,-4.343081951E0,-2.492363930E0,2.806004286E0
1.499027864E0,-4.913201332E0,-2.779668093E0,2.391807556E0
1.501039164E0,-5.166986465E0,-2.937685490E0,2.193088770E0
1.503050330E0,-5.576395035E0,-3.241749048E0,1.893813491E0
1.505070696E0,-5.892429829E0,-3.524264812E0,1.757344007E0
1.507091129E0,-6.234800339E0,-3.715801001E0,1.721431017E0
1.509111629E0,-6.385635376E0,-3.797203779E0,1.754949808E0
1.511132095E0,-6.627449512E0,-3.892971992E0,2.003946781E0
1.513152495E0,-6.706458092E0,-3.938461781E0,2.317587137E0
1.515172928E0,-6.708852291E0,-3.948038578E0,2.456450939E0
1.517193361E0,-6.672939301E0,-3.861847401E0,2.844311714E0
1.519211894E0,-6.651391506E0,-3.727771997E0,3.009511471E0
1.521232327E0,-6.581959724E0,-3.536235809E0,3.416525841E0
1.523252693E0,-6.471826553E0,-2.973598480E0,3.643975019E0
1.525273026E0,-6.201281548E0,-2.250549555E0,4.149151325E0
1.527293326E0,-6.019322395E0,-1.438915253E0,4.718971729E0
1.529313592E0,-5.952284813E0,-1.058237195E0,4.915595531E0
1.531333858E0,-5.813420773E0,-1.867477298E-1,5.315426826E0
1.533354091E0,-5.504569054E0,6.320692301E-1,5.679345608E0
1.535374324E0,-5.296273232E0,1.036689281E0,5.787084579E0
1.537394557E0,-4.762067318E0,1.750161409E0,5.945102215E0
1.540327557E0,-3.711012602E0,2.334346771E0,6.002563000E0
1.542423866E0,-3.337517262E0,2.829946518E0,6.009745598E0
1.544434866E0,-2.640804529E0,3.260902643E0,5.930737019E0
1.546446866E0,-2.061407566E0,3.608062029E0,5.897218227E0
1.548458866E0,-1.800439715E0,3.727771997E0,5.952284813E0
1.550470866E0,-1.288080573E0,4.000710964E0,6.043264389E0
1.552482866E0,-7.996633649E-1,4.283226967E0,6.136638165E0
1.554494866E0,-5.722141862E-1,4.393360138E0,6.172551155E0
1.556506866E0,-1.292868853E-1,4.613626480E0,6.052841187E0
1.558519008E0,3.878606856E-1,4.860229492E0,5.724835396E0
1.560531258E0,7.086837292E-1,4.987421513E0,5.499780655E0
1.562543702E0,1.398213744E0,5.195716858E0,5.023334503E0
1.564556202E0,2.073378563E0,5.408801079E0,4.501099110E0
1.566568656E0,2.408566952E0,5.550058842E0,4.232948780E0
1.568581156E0,3.050212860E0,5.966650009E0,3.653551817E0
1.570593617E0,3.517082214E0,6.476614952E0,3.064578056E0
1.572606045E0,3.787626982E0,7.044040680E0,2.501940727E0
1.574618445E0,3.847482204E0,7.309797287E0,2.205059767E0
1.576630882E0,3.742137194E0,7.788637638E0,1.659181833E0
1.578643293E0,3.462015629E0,8.104672432E0,1.036689281E0
1.580655515E0,3.258508444E0,8.188468933E0,7.182605267E-1
1.582667620E0,2.829946518E0,8.162133217E0,6.943184882E-2
1.584679670E0,2.430114746E0,7.860463619E0,-4.453215301E-1
1.586693384E0,2.159569979E0,7.673715591E0,-5.578489900E-1
1.588705293E0,1.376665950E0,7.328950882E0,-6.081272364E-1
1.590717162E0,4.165911078E-1,7.046434879E0,-6.967126727E-1
1.592729037E0,-6.943184882E-2,6.924330711E0,-8.403648138E-1
1.594740877E0,-9.792284966E-1,6.730400085E0,-1.314416766E0
1.596752646E0,-1.683123827E0,6.589142323E0,-1.831564307E0
1.598764349E0,-2.190694571E0,6.467038155E0,-2.300827742E0
1.600776027E0,-2.382230759E0,6.440701962E0,-2.482787132E0
1.602787682E0,-2.664746523E0,6.450278759E0,-2.753331900E0
1.604799282E0,-2.870647907E0,6.474220753E0,-2.887407303E0
1.606810882E0,-2.947262287E0,6.493374348E0,-2.928108692E0
1.608822515E0,-3.055001259E0,6.572382927E0,-2.971204281E0
1.610834115E0,-3.134010077E0,6.625055313E0,-2.954444885E0
1.612845715E0,-3.162740469E0,6.637026310E0,-2.923320293E0
1.614857281E0,-3.191470861E0,6.622661114E0,-2.841917515E0
1.616868847E0,-3.177105665E0,6.543652534E0,-2.703053713E0
1.618880347E0,-3.179499865E0,6.467038155E0,-2.624045134E0
1.620920047E0,-3.172317266E0,6.086359978E0,-2.351106167E0
1.622959713E0,-3.236960649E0,5.916371822E0,-2.250549555E0
1.624999346E0,-3.294421434E0,5.569212437E0,-2.006340981E0
1.627039012E0,-3.481169224E0,5.234024048E0,-1.716642618E0
1.629078612E0,-3.773261786E0,4.934749126E0,-1.508347034E0
1.631118178E0,-3.940855980E0,4.781220913E0,-1.479616642E0
1.633157744E0,-4.347870350E0,4.479551315E0,-1.592144132E0
1.635197310E0,-4.695029736E0,4.376600742E0,-2.118868589E0
1.637236776E0,-4.817133904E0,4.453215122E0,-2.533065319E0
1.639276209E0,-5.590760231E0,4.158728123E0,-3.586514235E0
1.641315742E0,-5.921160221E0,3.957615376E0,-3.904942989E0
1.643355342E0,-6.232406139E0,3.734954596E0,-4.278438568E0
1.645395008E0,-6.792649269E0,3.289633036E0,-5.183745861E0
1.647433441E0,-7.295432091E0,2.794033289E0,-6.249165535E0
1.649473107E0,-7.755118370E0,2.504334927E0,-6.917148113E0
1.651512740E0,-8.063970566E0,1.960851192E0,-7.932289600E0
1.653552340E0,-8.779836655E0,1.584961534E0,-8.494926453E0
1.655591906E0,-9.476549149E0,1.520318031E0,-8.645761490E0
1.657631472E0,-9.900322914E0,1.345541358E0,-8.686463356E0
1.659671038E0,-1.092264748E1,8.595184088E-1,-8.904335022E0
1.661710538E0,-1.199285603E1,2.322375625E-1,-9.227552414E0
1.663750004E0,-1.253394508E1,-1.125274822E-1,-9.423876762E0
1.665789437E0,-1.364006615E1,-7.709329724E-1,-9.905111313E0
1.667834570E0,-1.470578575E1,-1.197100878E0,-1.036958694E1
1.669879736E0,-1.580951214E1,-1.857900500E0,-1.083885002E1
1.671924936E0,-1.637454414E1,-2.221819162E0,-1.114770222E1
1.673970102E0,-1.745911789E1,-2.703053713E0,-1.183004951E1
1.676015302E0,-1.848622894E1,-3.213018656E0,-1.256267548E1
1.678060502E0,-1.899858856E1,-3.557783842E0,-1.296969032E1
1.680105768E0,-1.992275047E1,-4.326322556E0,-1.387709236E1
1.682122768E0,-2.067213631E1,-5.020940304E0,-1.474888134E1
1.684139768E0,-2.102408409E1,-5.305850029E0,-1.510801125E1
1.686156768E0,-2.170164299E1,-5.784690380E0,-1.569937897E1
1.688173701E0,-2.227146339E1,-6.232406139E0,-1.624525642E1
1.690190667E0,-2.250609398E1,-6.380846977E0,-1.648946571E1
1.692207600E0,-2.284367752E1,-6.548440933E0,-1.687253761E1
1.694224466E0,-2.297296333E1,-6.593930721E0,-1.694675827E1
1.696241299E0,-2.295859909E1,-6.601113319E0,-1.677437592E1
1.698258199E0,-2.273354340E1,-6.648997307E0,-1.595077038E1
1.700275132E0,-2.213020515E1,-6.608295918E0,-1.429128933E1
1.702291965E0,-2.192669678E1,-6.613084316E0,-1.374062252E1
1.704308765E0,-2.178304482E1,-6.680121899E0,-1.294814205E1
1.706325531E0,-2.179741096E1,-6.917148113E0,-1.165527344E1
1.708342331E0,-2.154362488E1,-7.328950882E0,-1.145176601E1
1.710359197E0,-2.121801376E1,-7.573159218E0,-1.145415974E1
1.712376130E0,-2.049975395E1,-7.994538784E0,-1.114770222E1
1.714393030E0,-1.974558067E1,-8.485349655E0,-1.046535492E1
1.716409996E0,-1.932419968E1,-8.787019730E0,-1.004158115E1
1.718426962E0,-1.828272247E1,-9.574711800E0,-9.141361237E0
1.720443962E0,-1.688929749E1,-1.054915237E1,-8.408735275E0
1.722460995E0,-1.602020264E1,-1.105911732E1,-8.123826027E0
1.724478028E0,-1.396567822E1,-1.204074001E1,-7.618649006E0
1.726495128E0,-1.160020638E1,-1.289546967E1,-7.065588474E0
1.728506494E0,-9.091083527E0,-1.327854156E1,-6.720823288E0
1.730517760E0,-7.793426037E0,-1.396807194E1,-5.791872978E0
1.732528993E0,-5.193322659E0,-1.456183434E1,-4.534617901E0
1.734540226E0,-2.566584110E0,-1.510561752E1,-3.062183857E0
1.736551392E0,-1.189918280E0,-1.535221958E1,-2.322375536E0
1.738562492E0,1.723825216E0,-1.565388966E1,-9.337386489E-1
1.740573558E0,4.901230335E0,-1.571613884E1,2.561795712E-1
1.742584591E0,6.584353924E0,-1.562515926E1,7.972691655E-1
1.744595524E0,1.000806236E1,-1.524926949E1,1.893813491E0
1.746606390E0,1.331206036E1,-1.472733307E1,3.076549292E0
1.748626490E0,1.619019127E1,-1.403510952E1,4.144362926E0
1.750646623E0,1.732264709E1,-1.364485455E1,4.778826714E0
1.752666823E0,1.928349876E1,-1.283322048E1,6.203675747E0
1.754687089E0,2.125632095E1,-1.198806763E1,7.810185432E0
1.756707355E0,2.222836685E1,-1.161217785E1,8.710405350E0
1.758727555E0,2.433526421E1,-1.107108784E1,1.065449715E1
1.760747721E0,2.679680252E1,-1.064492035E1,1.286913300E1
1.762767954E0,2.809446144E1,-1.042225933E1,1.404229259E1
1.764788254E0,3.083582115E1,-9.967360497E0,1.655889702E1
1.766808487E0,3.363224792E1,-9.457395554E0,1.932419968E1
1.768828720E0,3.640264130E1,-9.119813919E0,2.230498123E1
1.770848953E0,3.772184372E1,-8.296208382E0,2.382051086E1
1.772869186E0,4.001549149E1,-7.345710278E0,2.688299370E1
1.774889486E0,4.172494888E1,-6.368875980E0,2.975603676E1
1.776909752E0,4.236420059E1,-5.909189224E0,3.102975273E1
1.778930085E0,4.308246231E1,-5.111919880E0,3.316777420E1
1.780950418E0,4.310640335E1,-4.402936935E0,3.495654297E1
1.783880418E0,4.253179550E1,-3.603273630E0,3.665402985E1
1.786000866E0,4.144961548E1,-2.683900118E0,3.829166412E1
1.788011866E0,3.990535736E1,-2.219424963E0,3.906020355E1
1.790021866E0,3.900274277E1,-1.249773264E0,4.036264801E1
1.792032366E0,3.717835999E1,-1.963245422E-1,4.156693268E1
1.794043366E0,3.539468002E1,7.805097699E-1,4.236659622E1
1.796054366E0,3.448488235E1,1.247379065E0,4.280473328E1
1.798065566E0,3.239683914E1,2.097320795E0,4.416733551E1
1.800076732E0,3.005531120E1,2.619256735E0,4.547456741E1
1.802088017E0,2.888933563E1,2.741360903E0,4.598213959E1
1.804099267E0,2.662681580E1,2.786850691E0,4.659984589E1
1.806110600E0,2.451752281E1,2.717418909E0,4.692784882E1
1.808121900E0,2.354278374E1,2.683900118E0,4.710502243E1
1.810133172E0,2.180219841E1,2.638410330E0,4.735401917E1
1.812144505E0,2.035610199E1,2.691082716E0,4.740668869E1
1.814155812E0,1.975994492E1,2.750937700E0,4.730613327E1
1.816167169E0,1.880705261E1,2.837129116E0,4.682489777E1
1.818178635E0,1.803133202E1,2.849100113E0,4.577623749E1
1.820190072E0,1.744714546E1,2.753331900E0,4.408353806E1
1.822201542E0,1.694196892E1,2.557007313E0,4.183987045E1
1.824212930E0,1.667860794E1,2.449268341E0,4.047517776E1
1.826224193E0,1.614948845E1,2.262520552E0,3.762368393E1
1.828235443E0,1.589330959E1,2.195482969E0,3.619913101E1
1.830246728E0,1.543362236E1,2.157175779E0,3.353887558E1
1.832258046E0,1.494041729E1,2.205059767E0,3.119255829E1
1.834269350E0,1.473212147E1,2.269703150E0,3.005052376E1
1.836280641E0,1.446846008E1,2.406172752E0,2.782391548E1
1.838292001E0,1.425058746E1,2.600103140E0,2.587503624E1
1.840303424E0,1.412369537E1,2.698265314E0,2.497481537E1
1.842314831E0,1.387230396E1,2.913743496E0,2.325069046E1
1.844326295E0,1.357542324E1,3.153163671E0,2.165854645E1
1.846337743E0,1.324023438E1,3.244143248E0,2.091155624E1
1.848349209E0,1.307264042E1,3.406949043E0,1.952291870E1
1.850360709E0,1.271351051E1,3.541024208E0,1.825878143E1
1.852372242E0,1.231367874E1,3.675099611E0,1.710238075E1
1.854383742E0,1.211256599E1,3.754108191E0,1.656368637E1
1.856395242E0,1.170076275E1,3.892971992E0,1.561079407E1
1.858406742E0,1.126980686E1,4.060565948E0,1.467196751E1
1.860418275E0,1.109502983E1,4.197035789E0,1.417876148E1
1.862429841E0,1.072632313E1,4.498704910E0,1.316840839E1
1.864469674E0,1.036719227E1,4.876988888E0,1.213411331E1
1.866509507E0,9.991303444E0,5.274725437E0,1.109024143E1
1.868549340E0,9.579500198E0,5.681739807E0,1.011819553E1
1.870589206E0,9.182063103E0,5.878064632E0,9.658509254E0
1.872629006E0,8.966584206E0,6.213252544E0,8.820538521E0
1.874668839E0,8.540416718E0,6.498162746E0,8.109460831E0
1.876708639E0,8.195652008E0,6.656179905E0,7.431901455E0
1.878748372E0,8.066365242E0,6.675333500E0,6.938695908E0
1.880788105E0,7.917924404E0,6.660968304E0,5.937919617E0
1.882827838E0,7.733570576E0,6.761524677E0,6.122272968E0
1.884869171E0,7.642591000E0,6.778284073E0,6.177339554E0
1.886910604E0,7.472602844E0,6.787860870E0,6.028899193E0
1.888952037E0,7.328950882E0,6.773495674E0,5.868487835E0
1.890993437E0,7.273883820E0,6.749553680E0,5.811026573E0
1.893034837E0,7.151779652E0,6.672939301E0,5.813420773E0
1.895076270E0,7.039252281E0,6.538864136E0,5.890035629E0
1.897117736E0,6.960243702E0,6.457461357E0,5.885247231E0
1.899159169E0,6.950666904E0,6.309020519E0,5.837363243E0
1.901200535E0,6.929119110E0,6.246771336E0,5.875670433E0
1.903241868E0,6.883629322E0,6.208464146E0,5.882853031E0
1.905283034E0,6.847716331E0,6.208464146E0,5.906795025E0
1.907324100E0,6.756736279E0,6.206069946E0,5.964255810E0
1.909365066E0,6.641814709E0,6.153397560E0,6.043264389E0
1.911408999E0,6.567594528E0,6.127061367E0,6.093542576E0
1.913452899E0,6.416759968E0,6.036081791E0,6.179733753E0
1.915496765E0,6.287472725E0,5.902006626E0,6.213252544E0
1.917540631E0,6.239588737E0,5.813420773E0,6.198887348E0
1.919584464E0,6.170156956E0,5.612308025E0,6.182127953E0
1.921628297E0,6.076783180E0,5.404012680E0,6.122272968E0
1.923672063E0,5.981015205E0,5.169380665E0,6.004957199E0
1.925687596E0,5.921160221E0,5.066430092E0,5.925948620E0
1.927703129E0,5.758354187E0,4.853046894E0,5.746383190E0
1.929718662E0,5.566818237E0,4.649539471E0,5.526116848E0
1.931734162E0,5.461473465E0,4.553771496E0,5.389647484E0
1.933749695E0,5.207687855E0,4.388571739E0,5.083189487E0
1.935765195E0,4.913201332E0,4.240131378E0,4.707000732E0
1.937780695E0,4.759673119E0,4.175487995E0,4.493916512E0
1.939796195E0,4.441244125E0,4.058171749E0,4.048594952E0
1.941811728E0,4.115632534E0,3.940855980E0,3.598485231E0
1.943827228E0,3.792415380E0,3.869029999E0,3.148375273E0
1.945843128E0,3.624821424E0,3.825934410E0,2.944868088E0
1.947856994E0,3.299209833E0,3.768473387E0,2.549824715E0
1.949870827E0,2.999934673E0,3.754108191E0,2.363077164E0
1.951884660E0,2.846705914E0,3.756502390E0,1.984793186E0
1.953898426E0,2.578555346E0,3.778050184E0,1.656787634E0
1.955912192E0,2.310404539E0,3.785232782E0,1.374271750E0
1.957925925E0,2.181117773E0,3.790021181E0,1.237802267E0
1.959939658E0,1.893813491E0,3.761290789E0,1.012747288E0
1.961953391E0,1.594538331E0,3.703830004E0,8.619126081E-1
1.963967124E0,1.446097851E0,3.665522814E0,7.805097699E-1
1.965981024E0,1.149216771E0,3.552995205E0,6.200982332E-1
1.967995057E0,7.757213712E-1,3.392583847E0,4.548983276E-1
1.970009190E0,5.770025849E-1,3.292027235E0,3.806780577E-1
1.972020390E0,1.532289088E-1,3.059789658E0,2.082955539E-1
1.974031590E0,-3.591302633E-1,2.772485495E0,4.788403399E-3
1.976042856E0,-6.416460276E-1,2.633621931E0,-1.029506698E-1
1.978054122E0,-1.292868972E0,2.343923569E0,-3.303998411E-1
1.980065388E0,-2.133233786E0,2.015917778E0,-6.344634295E-1
1.982076654E0,-3.122039080E0,1.836352706E0,-1.113303781E0
1.984087987E0,-3.651157618E0,1.403002143E0,-1.417367458E0
1.986099253E0,-4.697423935E0,8.834604025E-1,-2.097320795E0
1.988110453E0,-5.643432617E0,2.801215947E-1,-2.865859509E0
1.990121653E0,-6.088754177E0,-2.154781483E-2,-3.234566450E0
1.992139019E0,-6.974608898E0,-5.889736414E-1,-3.912125587E0
1.994156485E0,-7.951443195E0,-1.034295082E0,-4.553771496E0
1.996173985E0,-9.062353134E0,-1.213860273E0,-5.236418247E0
1.998191585E0,-9.670479774E0,-1.474828243E0,-5.597942829E0
2.000209251E0,-1.097531986E1,-1.719036818E0,-6.378452778E0
2.002226951E0,-1.213171959E1,-1.881842494E0,-7.240365028E0
2.004244717E0,-1.313728428E1,-1.946485996E0,-7.968202591E0
2.006260550E0,-1.372386360E1,-2.082955360E0,-8.296208382E0
2.008278383E0,-1.495238781E1,-2.346317768E0,-9.024045944E0
2.010296316E0,-1.559882259E1,-2.432508945E0,-9.380781174E0
2.012314316E0,-1.697548866E1,-2.604891539E0,-1.006073475E1
2.014332382E0,-1.835454941E1,-2.616862535E0,-1.068562126E1
2.016350448E0,-1.903210831E1,-2.669534922E0,-1.089152241E1
2.018368581E0,-2.043271637E1,-3.074155092E0,-1.117643261E1
2.020386747E0,-2.189317894E1,-3.849876404E0,-1.139909363E1
2.022404980E0,-2.304718399E1,-4.144362926E0,-1.147091961E1
2.024423313E0,-2.343743896E1,-4.577713490E0,-1.139430523E1
2.026469846E0,-2.382530022E1,-5.071218491E0,-1.069040966E1
2.028516479E0,-2.369840622E1,-5.186140060E0,-1.030015469E1
2.030563112E0,-2.320041275E1,-5.363311291E0,-9.330503464E0
2.032609745E0,-2.231934738E1,-5.528511047E0,-8.269871712E0
2.034656411E0,-2.169685364E1,-5.562029839E0,-7.791031837E0
2.036703111E0,-1.994429779E1,-5.578789234E0,-6.919542313E0
2.038749811E0,-1.732983017E1,-5.617096424E0,-6.045658588E0
2.040796544E0,-1.577838802E1,-5.638644218E0,-5.530905247E0
2.042843310E0,-1.237832165E1,-5.631461620E0,-4.374206543E0
2.044890043E0,-8.734347343E0,-5.490203857E0,-3.050212860E0
2.046936876E0,-4.956296921E0,-5.327397823E0,-2.329558372E0
2.048983809E0,-3.007117271E0,-4.771644115E0,-9.911994934E-1
2.051030742E0,9.457096457E-1,-3.854664803E0,2.992752194E-1
2.053071542E0,4.850652695E0,-2.590526342E0,1.577778935E0
2.055112275E0,6.778284073E0,-1.865083098E0,2.181117773E0
2.057153008E0,1.060900688E1,-2.681505978E-1,3.268085241E0
2.059193708E0,1.427931786E1,1.436521053E0,4.204218388E0
2.061234374E0,1.602020264E1,2.300827742E0,4.620809078E0
2.063275007E0,1.970009041E1,4.139574528E0,5.420772076E0
2.065315607E0,2.294902229E1,5.985803604E0,6.246771336E0
2.067356140E0,2.451243591E1,6.876446724E0,6.751947880E0
2.069396673E0,2.771378326E1,8.540416718E0,7.807791233E0
2.071437173E0,3.087173462E1,1.001524544E1,8.767866135E0
2.073477606E0,3.237050629E1,1.063294888E1,9.251494408E0
2.075518072E0,3.507625198E1,1.157147598E1,1.025227070E1
2.077558538E0,3.730046463E1,1.210298920E1,1.126262379E1
2.079598971E0,3.888303375E1,1.230889034E1,1.224424648E1
2.081639337E0,3.941454697E1,1.231607246E1,1.268478012E1
2.083679637E0,3.992211533E1,1.221791077E1,1.339346313E1
2.085719903E0,3.971382141E1,1.197370243E1,1.386033249E1
2.087731936E0,3.934750748E1,1.180131912E1,1.402792740E1
2.089743802E0,3.790859222E1,1.138472843E1,1.534982586E1
2.091755635E0,3.470036316E1,1.108784771E1,2.067931938E1
2.093767501E0,3.302172852E1,1.097292614E1,2.194824600E1
2.095779334E0,3.040486526E1,1.079336071E1,2.119407272E1
2.097791134E0,2.770420647E1,1.051563358E1,2.114379311E1
2.099802967E0,2.614318657E1,1.032170296E1,2.108393860E1
2.101814767E0,2.260425758E1,9.885957718E0,2.216132927E1
2.103826533E0,1.894112778E1,9.354445457E0,2.303760719E1
2.105838299E0,1.549826622E1,8.662521362E0,2.344222832E1
2.108771299E0,1.245493698E1,7.781454563E0,2.350687027E1
2.110792866E0,9.871592522E0,6.747159481E0,2.340391922E1
2.112804866E0,8.784625053E0,6.191704750E0,2.334406471E1
2.114815866E0,7.005733490E0,5.052064896E0,2.314534569E1
2.116826366E0,5.693710804E0,3.981557369E0,2.280058098E1
2.118837366E0,5.157409668E0,3.476380825E0,2.260904503E1
2.120848616E0,4.249708176E0,2.578555346E0,2.210386848E1
2.122860016E0,3.502717018E0,1.726219416E0,2.121083069E1
2.124871349E0,3.107673883E0,1.345541358E0,2.059312820E1
2.126882634E0,1.714248419E0,3.399766386E-1,1.835215378E1
2.128893884E0,1.139639974E0,6.464344263E-2,1.759079933E1
2.130905106E0,-2.035071403E-1,-2.657563984E-1,1.608005714E1
2.132916406E0,-9.576807022E-1,-2.920926213E-1,1.534024906E1
2.134927860E0,-2.583343744E0,-2.370259613E-1,1.378611279E1
2.136939276E0,-4.264073372E0,-2.466027737E-1,1.194975948E1
2.138950737E0,-5.107131481E0,-3.184288144E-1,1.092743587E1
2.140962237E0,-6.838139534E0,-5.554547906E-1,8.736741066E0
2.142973703E0,-8.588300705E0,-8.810662031E-1,6.452672958E0
2.144985078E0,-9.486125946E0,-1.082179189E0,5.296273232E0
2.146996489E0,-1.141824722E1,-1.498770237E0,2.978386879E0
2.149007766E0,-1.322108078E1,-1.455674648E0,8.116343617E-1
2.151018976E0,-1.397764874E1,-1.204283476E0,-6.703764945E-2
2.153030176E0,-1.567064857E1,-6.512228847E-1,-1.539471745E0
2.155045652E0,-1.789965057E1,-4.189853072E-1,-3.380612850E0
2.157060970E0,-2.049257088E1,-9.504981041E-1,-5.992986202E0
2.159076143E0,-2.184290123E1,-1.424550056E0,-7.635408401E0
2.161091226E0,-2.377262688E1,-2.363077164E0,-1.140148735E1
2.163106146E0,-2.461089706E1,-3.239354849E0,-1.451155567E1
2.165120953E0,-2.507537270E1,-3.639186621E0,-1.539770985E1
2.167135693E0,-2.635866356E1,-4.024652958E0,-1.597231770E1
2.169150300E0,-2.795080757E1,-4.165910721E0,-1.587654972E1
2.171164782E0,-2.867625237E1,-4.177882195E0,-1.585260773E1
2.173179148E0,-2.957647133E1,-4.170699596E0,-1.590288639E1
2.175193514E0,-2.993560219E1,-4.371812344E0,-1.601301956E1
2.177207880E0,-3.003137016E1,-4.556165695E0,-1.596752930E1
2.179222213E0,-2.994517899E1,-5.028122902E0,-1.578078175E1
2.181236513E0,-2.944478989E1,-5.540482044E0,-1.515350151E1
2.183250779E0,-2.834585190E1,-5.873276234E0,-1.416918468E1
2.185265045E0,-2.759167862E1,-5.961861610E0,-1.359457684E1
2.187279378E0,-2.482876968E1,-5.873276234E0,-1.182526112E1
2.189295544E0,-2.379417419E1,-5.801449776E0,-1.123389339E1
2.191309844E0,-2.270960236E1,-5.729623795E0,-1.066646767E1
2.193324144E0,-2.040159035E1,-5.705681801E0,-9.500492096E0
2.195338410E0,-1.800260162E1,-5.957073212E0,-8.365639687E0
2.197352710E0,-1.677676964E1,-6.141426563E0,-7.822156429E0
2.199366976E0,-1.407102299E1,-6.488585949E0,-6.862081528E0
2.201381242E0,-1.081251431E1,-6.601113319E0,-5.930737019E0
2.203395575E0,-8.968978882E0,-6.512527943E0,-5.341763496E0
2.205409975E0,-4.973056316E0,-6.024110794E0,-3.785232782E0
2.207424341E0,-5.722141862E-1,-5.231629848E0,-1.826775908E0
2.209438741E0,4.106055737E0,-4.783615112E0,3.399766386E-1
2.211453207E0,6.522104740E0,-3.828328609E0,1.465251446E0
2.213467640E0,1.143500614E1,-2.774879694E0,3.790021181E0
2.215479073E0,1.628356361E1,-1.599326730E0,6.153397560E0
2.217490439E0,1.863227654E1,-9.624691010E-1,7.302614689E0
2.219501772E0,2.293705177E1,3.687070608E-1,9.526827812E0
2.221513038E0,2.716072273E1,1.886630893E0,1.167203236E1
2.223524338E0,2.903059387E1,2.647987127E0,1.267999172E1
2.225535638E0,3.211432648E1,4.129997730E0,1.454507446E1
2.227546871E0,3.452318954E1,5.473444462E0,1.628116989E1
2.229558037E0,3.543538284E1,6.093542576E0,1.708801651E1
2.231569203E0,3.674022293E1,7.252336025E0,1.854608536E1
2.233580336E0,3.741778183E1,8.377611160E0,1.992993355E1
2.235600769E0,3.747045517E1,9.481337547E0,2.142630959E1
2.237621369E0,3.727652359E1,1.001045704E1,2.226188660E1
2.239642002E0,3.655826187E1,1.072153473E1,2.415569878E1
2.241662702E0,3.559339905E1,1.075984192E1,2.570504761E1
2.243683435E0,3.490865707E1,1.081251431E1,2.662920952E1
2.245704201E0,3.318692780E1,1.098250294E1,2.871216393E1
2.247724967E0,2.927719688E1,1.105193424E1,3.523666382E1
2.249743933E0,2.747436142E1,1.102799225E1,3.808097458E1
2.251764799E0,2.588700676E1,1.115967369E1,3.942412186E1
2.253785699E0,2.357390785E1,1.125304699E1,3.929722977E1
2.255806565E0,2.172558403E1,1.104954052E1,3.878247452E1
2.257827465E0,2.087803650E1,1.087955189E1,3.843531799E1
2.259848398E0,1.926195145E1,1.043422985E1,3.780803680E1
2.261869364E0,1.784937286E1,9.938630104E0,3.712808228E1
2.263890297E0,1.726758194E1,9.701604843E0,3.668276215E1
2.265911230E0,1.636496735E1,9.177274704E0,3.537313461E1
2.267932230E0,1.574965763E1,8.506897926E0,3.352690506E1
2.270863230E0,1.533306599E1,7.870040417E0,3.134818077E1
2.273002866E0,1.494281101E1,7.379229069E0,2.898031425E1
2.275014866E0,1.450916195E1,7.137414455E0,2.656217194E1
2.277026866E0,1.425537586E1,7.099107265E0,2.538422394E1
2.279038866E0,1.369513321E1,7.156568050E0,2.306873131E1
2.281050866E0,1.316601467E1,7.340921879E0,2.083015251E1
2.283063116E0,1.289068127E1,7.458237648E0,1.973839760E1
2.285075116E0,1.238071632E1,7.685686588E0,1.763868332E1
2.287086949E0,1.186835670E1,7.889194012E0,1.567304325E1
2.289098949E0,1.160499477E1,7.996932983E0,1.475366974E1
2.291110949E0,1.108545303E1,8.150161743E0,1.309418869E1
2.293122949E0,1.053239250E1,8.253112793E0,1.166963863E1
2.295135049E0,9.964966774E0,8.293813705E0,1.045577812E1
2.297147049E0,9.684844971E0,8.339303970E0,9.897929192E0
2.299159132E0,9.162909508E0,8.382399559E0,8.925883293E0
2.301171208E0,8.676886559E0,8.375216484E0,8.095095634E0
2.303183279E0,8.468590736E0,8.358457565E0,7.709628582E0
2.305195412E0,8.126219749E0,8.403946877E0,7.039252281E0
2.307207474E0,7.982567787E0,8.660126686E0,6.593930721E0
2.309219415E0,7.779060364E0,8.633790970E0,6.083965778E0
2.311231248E0,7.683292389E0,8.583512306E0,5.791872978E0
2.313242984E0,7.561188221E0,8.492532730E0,5.222053051E0
2.315254634E0,7.513304234E0,8.439860344E0,4.944325924E0
2.317267491E0,7.439084053E0,8.408735275E0,4.407725334E0
2.319279081E0,7.419930458E0,8.387187958E0,3.955221176E0
2.321290689E0,7.415142059E0,8.391976357E0,3.756502390E0
2.323302314E0,7.446266651E0,8.396764755E0,3.459621429E0
2.325313954E0,7.539640427E0,8.406341553E0,3.277662039E0
2.327325607E0,7.630620003E0,8.353669167E0,3.160346270E0
2.329337273E0,7.673715591E0,8.305785179E0,3.122039080E0
2.331348951E0,7.735964775E0,8.198045731E0,3.057395458E0
2.333360606E0,7.793426037E0,8.059182167E0,3.057395458E0
2.335372272E0,7.822156429E0,7.949048996E0,3.224989653E0
2.337383905E0,7.786243439E0,7.561188221E0,4.067748547E0
2.339395538E0,7.592312813E0,7.106289864E0,4.685452938E0
2.341407171E0,7.479785442E0,6.893206120E0,4.860229492E0
2.343418737E0,7.242759228E0,6.512527943E0,5.207687855E0
2.345430270E0,6.893206120E0,6.091148376E0,5.736806393E0
2.347441770E0,6.689698696E0,5.861305237E0,6.074388981E0
2.349453170E0,6.222829342E0,5.413589478E0,6.835745335E0
2.351492903E0,5.550058842E0,4.857835293E0,7.965808392E0
2.353532636E0,5.360917091E0,4.738125324E0,8.341697693E0
2.355572269E0,4.982633114E0,4.584896088E0,9.052776337E0
2.357611869E0,4.690241337E0,4.467580318E0,9.713575363E0
2.359651435E0,4.546588898E0,4.407725334E0,1.002003384E1
2.361690968E0,4.297592163E0,4.316745758E0,1.054436398E1
2.363730468E0,4.086902142E0,4.204218388E0,1.098968506E1
2.365769901E0,3.998316765E0,4.146757126E0,1.118122101E1
2.367809334E0,3.852270603E0,3.969586372E0,1.153316879E1
2.369848834E0,3.756502390E0,3.780444384E0,1.185638618E1
2.371888367E0,3.713406801E0,3.684676409E0,1.200482655E1
2.373927967E0,3.677493811E0,3.485957623E0,1.225142956E1
2.375967600E0,3.675099611E0,3.335123062E0,1.242381191E1
2.378006366E0,3.677493811E0,3.265691042E0,1.247648430E1
2.380046032E0,3.689464808E0,3.129221678E0,1.254831028E1
2.382085665E0,3.725377798E0,3.021482468E0,1.254831028E1
2.384125231E0,3.720589399E0,2.978386879E0,1.244775391E1
2.386164797E0,3.727771997E0,2.966415882E0,1.237832165E1
2.388204363E0,3.722983599E0,2.954444885E0,1.220833397E1
2.390243896E0,3.689464808E0,2.959233284E0,1.199764442E1
2.392283329E0,3.703830004E0,2.956839085E0,1.185877991E1
2.394322729E0,3.801992416E0,2.923320293E0,1.154992867E1
2.396362062E0,3.845088005E0,2.990357876E0,1.127220058E1
2.398404362E0,3.864241600E0,3.045424461E0,1.115249062E1
2.400446695E0,3.859453201E0,3.186682463E0,1.090109921E1
2.402489028E0,3.866635799E0,3.349488258E0,1.060900688E1
2.404531328E0,3.907337189E0,3.445256233E0,1.028818417E1
2.406573728E0,3.933673382E0,3.490746021E0,1.012537861E1
2.408616194E0,3.974374771E0,3.550601006E0,9.766247749E0
2.410658727E0,4.015076160E0,3.584120035E0,9.378387451E0
2.412672927E0,4.031835556E0,3.591302633E0,9.184456825E0
2.414687160E0,4.074931145E0,3.612850428E0,8.789413452E0
2.416701460E0,4.103661537E0,3.632004023E0,8.413523674E0
2.418715826E0,4.118026733E0,3.667917013E0,8.241141319E0
2.420730159E0,4.146757126E0,3.730166197E0,7.937077999E0
2.422744525E0,4.177882195E0,3.825934410E0,7.659350395E0
2.424758958E0,4.199429989E0,3.895366192E0,7.546823025E0
2.426773424E0,4.225766182E0,4.029441357E0,7.352892876E0
2.428787957E0,4.240131378E0,4.175487995E0,7.228394032E0
2.430802490E0,4.235342979E0,4.273650169E0,7.108684063E0
2.432818890E0,4.216189384E0,4.307168961E0,7.034463882E0
2.434833423E0,4.127603531E0,4.316745758E0,6.835745335E0
2.436847989E0,3.969586372E0,4.276044369E0,6.579565525E0
2.438862589E0,3.871424198E0,4.228160381E0,6.419154167E0
2.440877189E0,3.632004023E0,4.098873138E0,6.031293392E0
2.442891789E0,3.361459255E0,3.957615376E0,5.574000835E0
2.444906455E0,3.189076662E0,3.869029999E0,5.346551895E0
2.446921121E0,2.753331900E0,3.677493811E0,4.843470097E0
2.448935787E0,2.319981337E0,3.519476414E0,4.285621166E0
2.450950520E0,2.094926596E0,3.445256233E0,4.007893562E0
2.452965386E0,1.659181833E0,3.292027235E0,3.418920040E0
2.454980352E0,1.268926859E0,3.134010077E0,2.758120298E0
2.456995385E0,1.106121182E0,3.055001259E0,2.410961151E0
2.459007485E0,8.140285611E-1,2.911349297E0,1.695094824E0
2.461019585E0,5.530605912E-1,2.810792685E0,1.065419793E0
2.463031651E0,3.399766386E-1,2.808398485E0,6.177040339E-1
2.465043784E0,2.274491638E-1,2.834734917E0,4.716577232E-1
2.467055884E0,-2.154781483E-2,2.889801502E0,2.681505978E-1
2.469067950E0,-2.777273953E-1,3.019088268E0,1.436520964E-1
2.471080016E0,-3.782838583E-1,3.078943491E0,1.053448766E-1
2.473092016E0,-5.937620401E-1,3.181894064E0,7.182604820E-2
2.475103949E0,-7.829039693E-1,3.284844637E0,2.394201607E-2
2.477115849E0,-8.523358107E-1,3.323152065E0,-1.675941236E-2
2.479133615E0,-9.648633003E-1,3.385401249E0,-1.292868853E-1
2.481151415E0,-1.058237195E0,3.471592426E0,-3.280056417E-1
2.483169215E0,-1.134851575E0,3.557783842E0,-5.722141862E-1
2.485186948E0,-1.168370485E0,3.612850428E0,-6.991068721E-1
2.487204714E0,-1.197100878E0,3.699041605E0,-9.385270476E-1
2.489222447E0,-1.230619669E0,3.775655985E0,-1.134851575E0
2.491240147E0,-1.280897856E0,3.847482204E0,-1.278503656E0
2.493256013E0,-1.304839969E0,3.888183594E0,-1.335964561E0
2.495273713E0,-1.340752959E0,3.952826977E0,-1.422155857E0
2.497291413E0,-1.379060149E0,3.967192173E0,-1.450886250E0
2.499309113E0,-1.462857246E0,3.976768970E0,-1.498770237E0
2.501326779E0,-1.539471745E0,3.998316765E0,-1.503558636E0
2.503344479E0,-1.642422318E0,4.005499363E0,-1.498770237E0
2.505362145E0,-1.678335428E0,4.036623955E0,-1.477222443E0
2.507379811E0,-1.762132406E0,4.055777550E0,-1.412579060E0
2.509397477E0,-1.821987510E0,4.065354347E0,-1.340752959E0
2.511415077E0,-1.831564307E0,4.079719543E0,-1.285686255E0
2.513460910E0,-1.800439715E0,4.146757126E0,-1.082179189E0
2.515506776E0,-1.769315004E0,4.168305397E0,-1.024718285E0
2.517552642E0,-1.726219416E0,4.201824188E0,-8.930372596E-1
2.519598508E0,-1.678335428E0,4.237737179E0,-7.829039693E-1
2.521644341E0,-1.666364431E0,4.268861771E0,-7.422025204E-1
2.523690174E0,-1.630451322E0,4.316745758E0,-6.991068721E-1
2.525736007E0,-1.644816518E0,4.328716755E0,-6.847416759E-1
2.527781840E0,-1.697489023E0,4.319139957E0,-7.062895298E-1
2.529827706E0,-1.726219416E0,4.273650169E0,-7.733271718E-1
2.531873539E0,-1.786074519E0,4.216189384E0,-8.714894056E-1
2.533919472E0,-1.831564307E0,4.137180328E0,-1.005564690E0
2.535965405E0,-1.865083098E0,4.084507942E0,-1.082179189E0
2.538011405E0,-1.917755604E0,3.967192173E0,-1.240196466E0
2.540051538E0,-1.980004787E0,3.828328609E0,-1.379060149E0
2.542091638E0,-2.008735180E0,3.751713991E0,-1.455674648E0
2.544131704E0,-2.097320795E0,3.593696833E0,-1.572990537E0
2.546171804E0,-2.217030764E0,3.426102638E0,-1.680729628E0
2.548211870E0,-2.288856745E0,3.332728863E0,-1.738190413E0
2.550251970E0,-2.437297344E0,3.129221678E0,-1.865083098E0
2.552292136E0,-2.710236311E0,2.813186884E0,-2.051830769E0
2.554332236E0,-2.710236311E0,2.813186884E0,-2.051830769E0
2.556372336E0,-2.940079689E0,2.609679937E0,-2.133233786E0
2.558412436E0,-3.191470861E0,2.327163935E0,-2.164358377E0
2.560454636E0,-3.519476414E0,2.047042370E0,-2.221819162E0
2.562494802E0,-3.701435804E0,1.879448295E0,-2.264914751E0
2.564535035E0,-4.086902142E0,1.537077546E0,-2.379836559E0
2.566575335E0,-4.539406300E0,1.194706678E0,-2.535459518E0
2.568615635E0,-4.783615112E0,1.029506683E0,-2.636016130E0
2.570656001E0,-5.336975098E0,7.254431248E-1,-2.925714493E0
2.572696434E0,-6.043264389E0,3.758896589E-1,-3.318363667E0
2.574708600E0,-6.433519363E0,1.747767180E-1,-3.576937437E0
2.576720766E0,-7.281066418E0,-3.160346150E-1,-4.204218388E0
2.578732966E0,-8.224382401E0,-8.906430602E-1,-4.994604111E0
2.580745166E0,-8.717587471E0,-1.197100878E0,-5.459079266E0
2.582757366E0,-9.718363762E0,-1.841141105E0,-6.613084316E0
2.584769632E0,-1.079575443E1,-2.331952572E0,-7.908347607E0
2.586781865E0,-1.217002678E1,-2.475604534E0,-8.806173325E0
2.588794165E0,-1.289307499E1,-2.698265314E0,-9.325715065E0
2.590806465E0,-1.428171253E1,-2.794033289E0,-1.056830597E1
2.592818798E0,-1.565149498E1,-2.784456491E0,-1.190905857E1
2.595752798E0,-1.688211441E1,-2.691082716E0,-1.330727196E1
2.597770866E0,-1.796189880E1,-2.576161146E0,-1.477521706E1
2.599783866E0,-1.845749855E1,-2.545036316E0,-1.550784302E1
2.601795866E0,-1.936490250E1,-2.573766708E0,-1.691563416E1
2.603807866E0,-2.015738297E1,-2.767697096E0,-1.814146423E1
2.605820199E0,-2.087564278E1,-2.928108692E0,-1.864424706E1
2.607832949E0,-2.121083069E1,-3.402160645E0,-1.943672752E1
2.609845749E0,-2.189317894E1,-3.960009575E0,-1.991317368E1
2.611858582E0,-2.260665131E1,-4.551377296E0,-2.002091408E1
2.613871582E0,-2.330336380E1,-5.092766285E0,-1.980064583E1
2.615890457E0,-2.366249466E1,-5.365705490E0,-1.959474564E1
2.617908679E0,-2.432568741E1,-5.945102215E0,-1.905126190E1
2.619926379E0,-2.460371399E1,-6.273107529E0,-1.875198555E1
2.621943560E0,-2.497002792E1,-7.034463882E0,-1.813188744E1
2.623960393E0,-2.499396896E1,-7.877223015E0,-1.747348213E1
2.625976931E0,-2.485989380E1,-8.332120895E0,-1.714547729E1
2.627993216E0,-2.425386238E1,-9.347262383E0,-1.641285133E1
2.630009216E0,-2.315252876E1,-1.041747093E1,-1.554615021E1
2.632024903E0,-2.159390450E1,-1.094419479E1,-1.456662273E1
2.634040373E0,-2.064340591E1,-1.191384697E1,-1.403032112E1
2.636055484E0,-1.849101830E1,-1.290025806E1,-1.286673927E1
2.638070378E0,-1.598428917E1,-1.392258263E1,-1.173667622E1
2.640085078E0,-1.458817005E1,-1.443254757E1,-1.118840408E1
2.642103363E0,-1.151880360E1,-1.540968037E1,-1.002961063E1
2.644121363E0,-7.913136005E0,-1.637933159E1,-8.739135742E0
2.646139102E0,-5.236418247E0,-1.714068794E1,-7.925107002E0
2.648156602E0,3.663128614E-1,-1.830187607E1,-5.691316605E0
2.650173882E0,4.027047157E0,-1.820610809E1,-3.378218651E0
2.652190997E0,5.676951408E0,-1.789725685E1,-2.250549555E0
2.654207922E0,9.282619476E0,-1.707125664E1,-2.274491638E-1
2.656224707E0,1.338867474E1,-1.604174995E1,1.628057122E0
2.658241327E0,1.792598724E1,-1.477761173E1,3.517082214E0
2.660257793E0,2.022442055E1,-1.403271580E1,4.532223701E0
2.662274259E0,2.460132027E1,-1.227537155E1,6.967426300E0
2.664290692E0,2.927719688E1,-1.001045704E1,9.893140793E0
2.666307125E0,3.147267914E1,-8.753500938E0,1.148049641E1
2.668323491E0,3.578972244E1,-6.074388981E0,1.472254467E1
2.670339824E0,3.990296173E1,-3.435679436E0,1.805287933E1
2.672356124E0,4.180156326E1,-2.229001760E0,1.969051361E1
2.674372324E0,4.674828339E1,8.523358107E-1,2.435920715E1
2.676388924E0,4.811297989E1,1.678335428E0,2.579363251E1
2.678403524E0,4.933162689E1,2.444479942E0,2.717029953E1
2.680418090E0,5.126614380E1,3.845088005E0,2.984701538E1
2.682432623E0,5.258055878E1,5.076006889E0,3.244472504E1
2.684447123E0,5.316953278E1,6.237194538E0,3.456628799E1
2.686461589E0,5.312404251E1,6.830956936E0,3.569395447E1
2.688476022E0,5.218312073E1,8.111854553E0,3.831321335E1
2.690490422E0,5.008580017E1,9.431059837E0,4.126047516E1
2.692504855E0,4.869237518E1,1.004636955E1,4.274966812E1
2.694519221E0,4.534767532E1,1.075984192E1,4.525669861E1
2.696533621E0,4.159326935E1,1.112615490E1,4.739711380E1
2.698548021E0,3.969466782E1,1.133684444E1,4.856548309E1
2.700562421E0,3.587351990E1,1.168400383E1,5.078730392E1
2.702574187E0,3.220769882E1,1.161935997E1,5.208974838E1
2.704585920E0,3.047429657E1,1.136796856E1,5.218791199E1
2.706597620E0,2.727085495E1,1.053239250E1,5.134754562E1
2.708609286E0,2.444060898E1,9.359233856E0,4.927895737E1
2.710620952E0,2.201288986E1,8.655338287E0,4.775624466E1
2.712632585E0,2.094746971E1,7.187692642E0,4.409281540E1
2.714644251E0,1.926913452E1,5.794267178E0,3.996760559E1
2.716655817E0,1.794274521E1,4.716577530E0,3.589985657E1
2.718667350E0,1.733940697E1,4.352658749E0,3.399856186E1
2.720678816E0,1.615906525E1,3.960009575E0,3.052457619E1
2.722699549E0,1.501224327E1,3.995922565E0,2.745281410E1
2.724720382E0,1.387709236E1,4.371812344E0,2.480243301E1
2.726741148E0,1.335036755E1,4.630385876E0,2.363615799E1
2.728761914E0,1.244536018E1,5.236418247E0,2.160587502E1
2.730782647E0,1.169597435E1,5.851728439E0,1.987965584E1
2.732803380E0,1.137994003E1,6.153397560E0,1.913984680E1
2.734824146E0,1.063534355E1,6.907571316E0,1.719575500E1
2.736844546E0,1.042225933E1,7.103895664E0,1.661635780E1
2.738866946E0,1.022114658E1,7.273883820E0,1.606329727E1
2.740889379E0,9.850045204E0,7.498939037E0,1.498111820E1
2.742911845E0,9.402329445E0,7.702445984E0,1.390103436E1
2.744934311E0,8.961795807E0,7.874828815E0,1.280927849E1
2.746956744E0,8.739135742E0,7.937077999E0,1.226100636E1
2.748979177E0,8.279448509E0,8.013691902E0,1.115249062E1
2.751001643E0,7.874828815E0,8.135796547E0,1.006312943E1
2.753024076E0,7.678503990E0,8.217199326E0,9.541193008E0
2.755046609E0,7.343316078E0,8.391976357E0,8.538022995E0
2.757980609E0,7.072771072E0,8.581118584E0,7.630620003E0
2.760101866E0,6.811803341E0,8.782231331E0,6.821380138E0
2.762115866E0,6.598719120E0,8.992920876E0,6.139032364E0
2.764128866E0,6.383241177E0,9.069535255E0,5.837363243E0
2.766141866E0,6.280290127E0,9.158121109E0,5.298667431E0
2.768154866E0,6.088754177E0,9.208398819E0,4.853046894E0
2.770167866E0,5.894824028E0,9.189245224E0,4.515464306E0
2.772180866E0,5.822998047E0,9.182063103E0,4.383783340E0
2.774194032E0,5.688922405E0,9.138967514E0,4.185064793E0
2.776207174E0,5.617096424E0,9.103054047E0,4.055777550E0
2.778220174E0,5.597942829E0,9.079112053E0,4.012681961E0
2.780233174E0,5.597942829E0,9.007286072E0,4.022258759E0
2.782246174E0,5.633855820E0,8.937853813E0,4.127603531E0
2.784259174E0,5.662586212E0,8.892364502E0,4.225766182E0
2.786272174E0,5.775113583E0,8.801384926E0,4.493916512E0
2.788285174E0,5.916371822E0,8.710405350E0,4.829104900E0
2.790298102E0,5.990592003E0,8.657732964E0,5.030517101E0
2.792311035E0,6.129455566E0,8.569147110E0,5.461473465E0
2.794323910E0,6.273107529E0,8.480561256E0,5.909189224E0
2.796336792E0,6.426336765E0,8.391976357E0,6.318597794E0
2.798349514E0,6.505345345E0,8.346486092E0,6.517316341E0
2.800362145E0,6.653785706E0,8.245929718E0,6.917148113E0
2.802374645E0,6.766313076E0,8.126219749E0,7.293037415E0
2.804389645E0,6.835745335E0,8.066365242E0,7.465420246E0
2.806402054E0,6.917148113E0,7.934683800E0,7.762300968E0
2.808414445E0,6.972214699E0,7.788637638E0,8.042423248E0
2.810426820E0,7.024887085E0,7.709628582E0,8.169315338E0
2.812439180E0,7.108684063E0,7.565976620E0,8.401553154E0
2.814451526E0,7.170933247E0,7.436689854E0,8.590695381E0
2.816463859E0,7.211634636E0,7.374440670E0,8.669703484E0
2.818476216E0,7.259518623E0,7.249941826E0,8.758289337E0
2.820488560E0,7.295432091E0,7.137414455E0,8.794201851E0
2.822500893E0,7.307403088E0,7.091924667E0,8.796596527E0
2.824513226E0,7.302614689E0,7.010521889E0,8.779836655E0
2.826525526E0,7.261912823E0,6.929119110E0,8.688857079E0
2.828537792E0,7.223605633E0,6.842927933E0,8.581118584E0
2.830550025E0,7.197269440E0,6.790255070E0,8.514080048E0
2.832562291E0,7.125443459E0,6.672939301E0,8.363245964E0
2.834574524E0,7.027281284E0,6.572382927E0,8.193257332E0
2.836586724E0,6.977003098E0,6.502951145E0,8.099884033E0
2.838627190E0,6.799831867E0,6.313809395E0,7.779060364E0
2.840667623E0,6.730400085E0,6.246771336E0,7.668927193E0
2.842707989E0,6.608295918E0,6.117484570E0,7.422324657E0
2.844748322E0,6.495768547E0,5.988197803E0,7.156568050E0
2.846788588E0,6.407183170E0,5.885247231E0,6.830956936E0
2.848828788E0,6.380846977E0,5.834969044E0,6.660968304E0
2.850868988E0,6.294655323E0,5.755959988E0,6.323386192E0
2.852909154E0,6.191704750E0,5.653009415E0,5.966650009E0
2.854949287E0,6.134243965E0,5.595548630E0,5.803843975E0
2.856989387E0,5.913977623E0,5.344157696E0,5.303455830E0
2.859029520E0,5.822998047E0,5.231629848E0,5.140650272E0
2.861069653E0,5.734412193E0,5.104737282E0,4.992209911E0
2.863109819E0,5.504569054E0,4.797980309E0,4.733336926E0
2.865148219E0,5.243600845E0,4.438849926E0,4.515464306E0
2.867188385E0,5.102343082E0,4.252102375E0,4.410119534E0
2.869228485E0,4.790797710E0,3.845088005E0,4.187458992E0
2.871268551E0,4.455609322E0,3.423708439E0,3.938461781E0
2.873308584E0,4.273650169E0,3.222595453E0,3.799597979E0
2.875348550E0,3.847482204E0,2.858676910E0,3.533841610E0
2.877388483E0,3.347094059E0,2.540247917E0,3.227383852E0
2.879428249E0,2.779668093E0,2.276885748E0,2.863465309E0
2.881467915E0,2.492363930E0,2.164358377E0,2.679111719E0
2.883507515E0,1.905784607E0,1.956062794E0,2.300827742E0
2.885550048E0,1.302445769E0,1.738190413E0,1.968033791E0
2.887592614E0,9.840168953E-1,1.628057122E0,1.829170108E0
2.889635147E0,3.112462163E-1,1.364694953E0,1.561019540E0
2.891677647E0,-4.118026793E-1,1.055842996E0,1.254561663E0
2.893720047E0,-8.044517636E-1,8.571242094E-1,1.070208192E0
2.895762380E0,-1.654393315E0,4.070142806E-1,6.871358752E-1
2.897804646E0,-2.612074137E0,-1.364694983E-1,2.418143749E-1
2.899818612E0,-3.612850428E0,-4.381389022E-1,-3.830722719E-2
2.901832545E0,-4.115632534E0,-1.089361787E0,-7.278373241E-1
2.903846445E0,-5.143044472E0,-1.735796213E0,-1.570596337E0
2.905860278E0,-6.218040943E0,-2.288856745E0,-2.501940727E0
2.907874111E0,-6.768707275E0,-2.523488522E0,-2.995146275E0
2.909887944E0,-7.891588211E0,-2.877830505E0,-4.024652958E0
2.911901777E0,-8.980949402E0,-3.098097086E0,-5.169380665E0
2.913915643E0,-9.519645691E0,-3.165134668E0,-5.787084579E0
2.915929543E0,-1.058745956E1,-3.186682463E0,-7.034463882E0
2.917943443E0,-1.169358063E1,-3.186682463E0,-8.238747597E0
2.919957309E0,-1.232564926E1,-3.222595453E0,-8.825326920E0
2.921971209E0,-1.356584644E1,-3.196259260E0,-9.802161217E0
2.923985142E0,-1.492365742E1,-3.342305660E0,-1.096813679E1
2.925999075E0,-1.564191818E1,-3.493140221E0,-1.166963863E1
2.928013008E0,-1.711435318E1,-3.790021181E0,-1.296729565E1
2.930026941E0,-1.862030602E1,-4.084507942E0,-1.418354988E1
2.932040941E0,-2.004006767E1,-4.357447147E0,-1.545277596E1
2.934054941E0,-2.070086670E1,-4.448426723E0,-1.604653740E1
2.936068974E0,-2.194345665E1,-4.548983097E0,-1.705928612E1
2.938082974E0,-2.305197334E1,-4.560954094E0,-1.777275848E1
2.940097074E0,-2.354517746E1,-4.537012100E0,-1.799781227E1
2.942111240E0,-2.442624474E1,-4.537012100E0,-1.819892502E1
2.944125406E0,-2.515917015E1,-4.678270340E0,-1.804569626E1
2.946136606E0,-2.552548218E1,-4.829104900E0,-1.782542992E1
2.948147772E0,-2.603784180E1,-5.401618481E0,-1.716702461E1
2.950159005E0,-2.624134827E1,-6.282684326E0,-1.629074669E1
2.952170271E0,-2.626768494E1,-6.754342079E0,-1.580951214E1
2.954181537E0,-2.621501160E1,-7.750329971E0,-1.483028412E1
2.956192803E0,-2.598995781E1,-8.885181427E0,-1.397286034E1
2.958204136E0,-2.538422394E1,-9.900322914E0,-1.349402046E1
2.960215402E0,-2.487665367E1,-1.031451988E1,-1.337191582E1
2.962226635E0,-2.333448792E1,-1.103996372E1,-1.324262905E1
2.964237868E0,-2.091873932E1,-1.155711079E1,-1.300081444E1
2.966259701E0,-1.761952972E1,-1.175343513E1,-1.236395645E1
2.968281534E0,-1.563712978E1,-1.202158642E1,-1.184680939E1
2.970303367E0,-1.111178970E1,-1.208862400E1,-1.039831734E1
2.972325200E0,-6.019322395E0,-1.191384697E1,-8.480561256E0
2.974346966E0,-3.354276657E0,-1.169836903E1,-7.281066418E0
2.976368732E0,2.138022184E0,-1.092504120E1,-4.563348293E0
2.978390465E0,7.633014202E0,-9.682451248E0,-1.596932530E0
2.980413898E0,1.033127975E1,-8.928277016E0,-8.619125932E-2
2.982437331E0,1.552460194E1,-7.190086842E0,2.978386879E0
2.984460764E0,2.066016579E1,-4.961085320E0,5.846940041E0
2.986484230E0,2.304239655E1,-3.744531393E0,7.106289864E0
2.988507730E0,2.768984032E1,-9.169792533E-1,9.354445457E0
2.990531296E0,3.177674294E1,2.118868589E0,1.129135418E1
2.992554862E0,3.535158539E1,4.750096321E0,1.301996803E1
2.994578462E0,3.718554306E1,5.911583424E0,1.386033249E1
2.996602095E0,4.058052063E1,7.941866398E0,1.557009220E1
2.998625795E0,4.359003448E1,9.488520622E0,1.740165710E1
3.000677861E0,4.640591431E1,1.064013195E1,2.010470963E1
3.002729994E0,4.850083923E1,1.147570801E1,2.422991943E1
3.004782194E0,4.895573807E1,1.179413700E1,2.554702950E1
3.006834394E0,4.919036865E1,1.227058315E1,2.714396286E1
3.008886594E0,4.814170837E1,1.253155136E1,2.819022942E1
3.010938760E0,4.706192398E1,1.257943535E1,2.868582916E1
3.012990926E0,4.397310638E1,1.256267548E1,3.010319519E1
3.015043126E0,4.030039978E1,1.251239777E1,3.165942764E1
3.017095359E0,3.648404312E1,1.258182907E1,3.318453217E1
3.019147592E0,3.455192184E1,1.261295414E1,3.400095749E1
3.021199925E0,3.067540932E1,1.252197456E1,3.560536957E1
3.023252291E0,2.698355103E1,1.203595161E1,3.676895142E1
3.025304691E0,2.523338890E1,1.161935997E1,3.713526535E1
3.027346591E0,2.194106293E1,1.048450851E1,3.741059875E1
3.029388557E0,1.913266373E1,9.126996040E0,3.686232758E1
3.031430523E0,1.795232201E1,8.454225540E0,3.637869644E1
3.033472456E0,1.605132675E1,7.295432091E0,3.506188583E1
3.035514389E0,1.481831264E1,6.469432354E0,3.331142426E1
3.037556322E0,1.437748051E1,6.177339554E0,3.233459091E1
3.039598255E0,1.348444366E1,5.729623795E0,2.913833237E1
3.041638521E0,1.328332996E1,5.715258598E0,2.806812477E1
3.043678721E0,1.294335365E1,5.755959988E0,2.699312782E1
3.045718854E0,1.278054810E1,5.973832607E0,2.497002792E1
3.047760020E0,1.246690750E1,6.309020519E0,2.318365288E1
3.049800120E0,1.217481518E1,6.639420509E0,2.161784554E1
3.051840220E0,1.203834534E1,6.780678272E0,2.090437317E1
3.053880253E0,1.176780033E1,7.005733490E0,1.954207230E1
3.055920286E0,1.150922680E1,7.108684063E0,1.826835823E1
3.057960319E0,1.137994003E1,7.111078262E0,1.765783691E1
3.060000352E0,1.105432892E1,7.012916088E0,1.639369774E1
3.062012018E0,1.054915237E1,6.804620743E0,1.516786671E1
3.064023651E0,1.025227070E1,6.682516098E0,1.455943966E1
3.066035317E0,9.512462616E0,6.414365768E0,1.330727196E1
3.068046983E0,8.533234596E0,6.088754177E0,1.200243282E1
3.070058616E0,7.214028835E0,5.899612427E0,1.134163284E1
3.072070249E0,6.462249756E0,5.466261864E0,9.988908768E0
3.074081882E0,4.901230335E0,5.008969307E0,8.573935509E0
3.076093482E0,3.294421434E0,4.532223701E0,7.168539047E0
3.078105115E0,2.432508945E0,4.292803764E0,6.502951145E0
3.080116748E0,6.344634295E-1,3.711012602E0,5.207687855E0
3.082156648E0,-1.345541358E0,2.956839085E0,3.952826977E0
3.084196614E0,-3.481169224E0,2.056619167E0,2.698265314E0
3.086236614E0,-5.638644218E0,1.012747288E0,1.400607944E0
3.088276580E0,-6.641814709E0,4.453215301E-1,7.374141216E-1
3.090316513E0,-8.935460091E0,-8.140285611E-1,-5.913678408E-1
3.092356513E0,-1.144218922E1,-2.142810583E0,-2.090138197E0
3.094396579E0,-1.270393372E1,-2.777273893E0,-2.944868088E0
3.096436645E0,-1.513913631E1,-3.883395195E0,-4.831499100E0
3.098476645E0,-1.761713409E1,-4.718971729E0,-6.948272705E0
3.100516711E0,-2.013583565E1,-5.183745861E0,-9.134179115E0
3.102558411E0,-2.141433907E1,-5.274725437E0,-1.022114658E1
3.104600211E0,-2.393064499E1,-5.140650272E0,-1.242860031E1
3.106642044E0,-2.641612434E1,-4.661510944E0,-1.464563084E1
3.108682777E0,-2.759407234E1,-4.328716755E0,-1.573289776E1
3.110724543E0,-2.984941101E1,-3.761290789E0,-1.788049698E1
3.112766309E0,-3.200658798E1,-3.560178041E0,-2.004246140E1
3.114808075E0,-3.300975800E1,-3.550601006E0,-2.112703514E1
3.116849841E0,-3.477697754E1,-3.452438831E0,-2.315731812E1
3.118891607E0,-3.616082382E1,-3.289633036E0,-2.491735458E1
3.120933373E0,-3.739384079E1,-3.485957623E0,-2.622698402E1
3.122975106E0,-3.786071014E1,-4.039018154E0,-2.682792854E1
3.125016806E0,-3.841376877E1,-4.764461517E0,-2.768984032E1
3.127058406E0,-3.805224609E1,-5.911583424E0,-2.782870483E1
3.129102972E0,-3.753270340E1,-6.641814709E0,-2.751266861E1
3.131147638E0,-3.601238632E1,-8.298602104E0,-2.606896591E1
3.133192338E0,-3.401531982E1,-9.931447983E0,-2.378459740E1
3.135237004E0,-3.289722824E1,-1.067365074E1,-2.239596176E1
3.137281670E0,-3.045035553E1,-1.189469337E1,-1.947503471E1
3.139326303E0,-2.754858208E1,-1.283082581E1,-1.663311768E1
3.141370969E0,-2.589897728E1,-1.322826385E1,-1.533067226E1
3.143387335E0,-2.221400261E1,-1.384836197E1,-1.285476780E1
3.145403635E0,-1.819892502E1,-1.437987423E1,-1.037437534E1
3.147419901E0,-1.405905151E1,-1.462647724E1,-7.769483566E0
3.149436134E0,-1.193060589E1,-1.503139687E1,-6.452672958E0
3.151452334E0,-7.513304234E0,-1.528997040E1,-3.761290789E0
3.153468467E0,-2.813186884E0,-1.523011589E1,-8.379706144E-1
3.155484567E0,-3.806780577E-1,-1.502900219E1,7.206547260E-1
3.157500700E0,4.685452938E0,-1.415242577E1,3.892971992E0
3.159516933E0,9.383175850E0,-1.225142956E1,6.936301708E0
3.161533133E0,1.369513321E1,-9.466972351E0,9.493309021E0
3.163547633E0,1.591006851E1,-8.047211647E0,1.057788277E1
3.165562133E0,2.063861656E1,-5.550058842E0,1.270872211E1
3.167576633E0,2.311422157E1,-4.484339714E0,1.382681370E1
3.169591133E0,2.855175400E1,-2.506729126E0,1.615906525E1
3.171605633E0,3.390279388E1,-8.092401624E-1,1.873283195E1
3.173620133E0,3.656305313E1,-6.224924326E-2,2.037285995E1
3.175634699E0,4.153102112E1,1.158793569E0,2.383487701E1
3.177649232E0,4.533091736E1,2.082955360E0,2.663160324E1
3.179663765E0,4.776821518E1,3.026270866E0,2.929635048E1
3.181678298E0,4.839549637E1,3.552995205E0,3.063470840E1
3.183692864E0,4.851760101E1,4.865017891E0,3.361788559E1
3.185707497E0,4.713614655E1,6.522104740E0,3.714005280E1
3.187722230E0,4.590073776E1,7.395988464E0,3.905541611E1
3.189734030E0,4.262995911E1,9.047987938E0,4.254616165E1
3.191745763E0,3.877529526E1,1.012298393E1,4.473476028E1
3.193757429E0,3.681922913E1,1.028818417E1,4.519444656E1
3.195769095E0,3.302172852E1,9.996091843E0,4.526627350E1
3.197780728E0,2.954055786E1,9.162909508E0,4.497418213E1
3.199792328E0,2.797475052E1,8.619425774E0,4.470124054E1
3.201803861E0,2.521423531E1,7.312191486E0,4.356608963E1
3.203815294E0,2.281973457E1,5.844545841E0,4.163397217E1
3.205826727E0,2.077748108E1,5.111919880E0,3.923258591E1
3.207838160E0,1.981979942E1,3.708618402E0,3.795886993E1
3.209858860E0,1.793316841E1,2.492363930E0,3.530130768E1
3.211879626E0,1.606569290E1,1.493981838E0,3.248542786E1
3.213900392E0,1.419312668E1,1.094150186E0,2.963872147E1
3.215921125E0,1.326178265E1,5.650315881E-1,2.822853661E1
3.217941825E0,1.138233376E1,3.950432837E-1,2.551590538E1
3.219962525E0,9.639355659E0,5.482721925E-1,2.298254013E1
3.221983225E0,8.142979622E0,9.457096457E-1,2.056918526E1
3.224005725E0,7.503727436E0,1.204283476E0,1.941996765E1
3.226028258E0,6.388029575E0,1.798045516E0,1.723166847E1
3.228050791E0,5.899612427E0,2.140416384E0,1.619258499E1
3.230073324E0,4.987421513E0,2.875436306E0,1.419312668E1
3.232095890E0,4.228160381E0,3.624821424E0,1.222030449E1
3.234118423E0,3.938461781E0,3.995922565E0,1.120516300E1
3.236140889E0,3.490746021E0,4.678270340E0,9.162909508E0
3.238163389E0,3.150769472E0,5.296273232E0,7.211634636E0
3.240185855E0,2.904166698E0,5.597942829E0,5.363311291E0
3.242208321E0,2.815581083E0,6.165368557E0,4.465186119E0
3.244259154E0,2.585737944E0,6.948272705E0,2.059013367E0
3.246309954E0,2.525882721E0,7.209240437E0,1.371877551E0
3.248360687E0,2.418143749E0,7.685686588E0,2.418143749E-1
3.250411353E0,2.296039343E0,8.126219749E0,-6.416460276E-1
3.252462019E0,2.231395960E0,8.332120895E0,-1.005564690E0
3.254512685E0,2.154781580E0,8.681674957E0,-1.623268723E0
3.256563385E0,2.087743998E0,8.973767281E0,-2.073378563E0
3.258614085E0,2.106897593E0,9.126996040E0,-2.236184359E0
3.260664818E0,2.188300371E0,9.421483040E0,-2.401384354E0
3.262715584E0,2.317587137E0,9.725546837E0,-2.351106167E0
3.264766484E0,2.434903145E0,9.876380920E0,-2.109291792E0
3.266817450E0,2.489969730E0,1.013495541E1,-1.917755604E0
3.268868450E0,2.604891539E0,1.031691456E1,-1.434126854E0
3.270910183E0,2.688688517E0,1.041507626E1,-8.044517636E-1
3.272951916E0,2.748543501E0,1.040549946E1,-4.525041282E-1
3.274993716E0,2.899378300E0,1.032649136E1,3.567360640E-1
3.277035616E0,3.050212860E0,1.014932060E1,1.319205165E0
3.279077549E0,3.141192675E0,1.005834103E1,1.841141105E0
3.281119482E0,3.339911461E0,9.854833603E0,2.894589901E0
3.283161415E0,3.536235809E0,9.653720856E0,3.892971992E0
3.285201581E0,3.643975019E0,9.569923401E0,4.376600742E0
3.287241614E0,3.825934410E0,9.440636635E0,5.293879032E0
3.289281647E0,4.012681961E0,9.328108788E0,6.131849766E0
3.291321713E0,4.103661537E0,9.270648003E0,6.505345345E0
3.293361779E0,4.271255970E0,9.138967514E0,7.192481041E0
3.295401879E0,4.496310711E0,8.997709274E0,7.798214436E0
3.297441979E0,4.750096321E0,8.882787704E0,8.324938774E0
3.299482045E0,4.876988888E0,8.813355446E0,8.571541786E0
3.301522111E0,5.126285076E0,8.696040154E0,9.002497673E0
3.303562177E0,5.401618481E0,8.583512306E0,9.344868660E0
3.305573877E0,5.540482044E0,8.523657799E0,9.476549149E0
3.307585543E0,5.796661377E0,8.384793282E0,9.677662849E0
3.309597209E0,6.036081791E0,8.217199326E0,9.830891609E0
3.311608875E0,6.134243965E0,8.133402824E0,9.897929192E0
3.313620475E0,6.328174591E0,7.970596790E0,1.001524544E1
3.315632108E0,6.455067158E0,7.812579632E0,1.010622501E1
3.317643741E0,6.495768547E0,7.721599579E0,1.015889740E1
3.319655441E0,6.567594528E0,7.544428825E0,1.027860737E1
3.321667141E0,6.591536522E0,7.395988464E0,1.042704773E1
3.323678841E0,6.572382927E0,7.259518623E0,1.058267117E1
3.326611841E0,6.505345345E0,7.144597054E0,1.072392845E1
3.328602866E0,6.376058578E0,7.063194275E0,1.086279202E1
3.330614866E0,6.292261124E0,7.041646481E0,1.091785908E1
3.332626866E0,6.146214962E0,6.991368294E0,1.100644493E1
3.334638366E0,5.964255810E0,6.924330711E0,1.104235744E1
3.336650366E0,5.868487835E0,6.890811920E0,1.104714584E1
3.338662116E0,5.696105003E0,6.826168537E0,1.101841545E1
3.340673716E0,5.526116848E0,6.768707275E0,1.094180107E1
3.342685549E0,5.329792023E0,6.744765282E0,1.080293751E1
3.344697263E0,5.111919880E0,6.572382927E0,1.061618996E1
3.346708763E0,5.008969307E0,6.526893139E0,1.049647999E1
3.348720207E0,4.809951305E0,6.433519363E0,1.024269390E1
3.350731607E0,4.707000732E0,6.395212173E0,1.009425354E1
3.352742970E0,4.527435303E0,6.335357189E0,9.773430824E0
3.354754303E0,4.383783340E0,6.277895927E0,9.375992775E0
3.356765533E0,4.309563160E0,6.263530731E0,9.167697906E0
3.358776818E0,4.156333923E0,6.220435143E0,8.710405350E0
3.360788018E0,3.974374771E0,6.189310551E0,8.255506516E0
3.362799268E0,3.885789394E0,6.184522152E0,8.030451775E0
3.364810503E0,3.694253206E0,6.170156956E0,7.589918613E0
3.366821669E0,3.464409828E0,6.167762756E0,7.178115845E0
3.368832774E0,3.342305660E0,6.170156956E0,6.986579895E0
3.370843824E0,3.081337690E0,6.174945354E0,6.637026310E0
3.372864252E0,2.856282711E0,6.189310551E0,6.316203594E0
3.374884252E0,2.609679937E0,6.196493149E0,6.060023785E0
3.376903817E0,2.487575531E0,6.201281548E0,5.959467411E0
3.378922942E0,2.262520552E0,6.222829342E0,5.779901981E0
3.380941782E0,2.049436569E0,6.237194538E0,5.648221016E0
3.382960358E0,1.941697598E0,6.241982937E0,5.593154430E0
3.384978654E0,1.776497602E0,6.239588737E0,5.490203857E0
3.386996689E0,1.589749932E0,6.275501728E0,5.401618481E0
3.389014482E0,1.405396342E0,6.277895927E0,5.313032627E0
3.391032048E0,1.314416766E0,6.294655323E0,5.265148640E0
3.393049681E0,1.122880578E0,6.316203594E0,5.193322659E0
3.395067347E0,9.241618514E-1,6.309020519E0,5.104737282E0
3.397084980E0,8.212111592E-1,6.309020519E0,5.056853294E0
3.399102613E0,5.793967843E-1,6.297049522E0,4.980238914E0
3.401120246E0,3.878606856E-1,6.292261124E0,4.888959885E0
3.403137812E0,2.992752194E-1,6.280290127E0,4.845864296E0
3.405155412E0,5.027823523E-2,6.244377136E0,4.728548527E0
3.407174978E0,-2.873042040E-2,6.239588737E0,4.692635536E0
3.409192578E0,-1.053448766E-1,6.230011940E0,4.668693542E0
3.411210178E0,-2.370259613E-1,6.222829342E0,4.647145271E0
3.413227811E0,-2.920926213E-1,6.352116585E0,4.860229492E0
3.415245477E0,-3.184288144E-1,6.337751389E0,4.620809078E0
3.417263210E0,-3.351882398E-1,6.232406139E0,4.431667328E0
3.419280943E0,-4.118026793E-1,6.098330975E0,4.242525578E0
3.421298709E0,-5.003881454E-1,6.021716595E0,4.209006786E0
3.423316442E0,-5.363011956E-1,5.990592003E0,4.216189384E0
3.425334175E0,-6.177040339E-1,5.973832607E0,4.232948780E0
3.427352008E0,-6.368576288E-1,5.976226807E0,4.292803764E0
3.429369874E0,-6.464344859E-1,5.995380402E0,4.326322556E0
3.431387840E0,-6.775590777E-1,6.021716595E0,4.345476151E0
3.433399273E0,-7.685387731E-1,6.000168800E0,4.304774761E0
3.435410739E0,-8.212111592E-1,5.988197803E0,4.261679173E0
3.437422305E0,-9.576807022E-1,5.928342819E0,4.177882195E0
3.439433971E0,-1.156399369E0,5.789478779E0,4.024652958E0
3.441445637E0,-1.254561663E0,5.734412193E0,3.926490784E0
3.443457337E0,-1.434126854E0,5.595548630E0,3.720589399E0
3.445469037E0,-1.632845521E0,5.463867664E0,3.490746021E0
3.447480703E0,-1.838746905E0,5.315426826E0,3.280056238E0
3.449492369E0,-1.936909199E0,5.250783443E0,3.186682463E0
3.451504069E0,-2.106897593E0,5.123890877E0,3.004723072E0
3.453524869E0,-2.264914751E0,5.030517101E0,2.825158119E0
3.455545702E0,-2.398990154E0,4.932354927E0,2.683900118E0
3.457566535E0,-2.458845139E0,4.903624535E0,2.616862535E0
3.459587368E0,-2.545036316E0,4.862623692E0,2.480392933E0
3.461608234E0,-2.590526342E0,4.853046894E0,2.331952572E0
3.463629134E0,-2.607285738E0,4.860229492E0,2.269703150E0
3.465650034E0,-2.636016130E0,4.908412933E0,2.133233786E0
3.467669000E0,-2.679111719E0,4.917989731E0,2.102109194E0
3.469690000E0,-2.717418909E0,4.941931725E0,2.049436569E0
3.471711000E0,-2.746149302E0,4.958691120E0,1.912967205E0
3.473731966E0,-2.786850691E0,4.980238914E0,1.726219416E0
3.475752932E0,-2.815581083E0,4.975450516E0,1.618480325E0
3.477773898E0,-2.861071110E0,4.949114323E0,1.383848548E0
3.479794864E0,-2.920926094E0,4.896441936E0,1.149216771E0
3.481815864E0,-2.990357876E0,4.855441093E0,1.024718285E0
3.483836897E0,-3.026270866E0,4.769249916E0,7.972691655E-1
3.485857997E0,-3.093308687E0,4.663905144E0,5.674257874E-1
3.488790997E0,-3.160346270E0,4.517858505E0,3.519476354E-1
3.490916866E0,-3.246537447E0,4.405331135E0,1.604115069E-1
3.492928866E0,-3.378218651E0,4.314351559E0,-2.633621916E-2
3.494939866E0,-3.450044632E0,4.261679173E0,-1.221042871E-1
3.496950866E0,-3.591302633E0,4.146757126E0,-3.088520169E-1
3.498961866E0,-3.711012602E0,4.039018154E0,-4.836287498E-1
3.500973366E0,-3.773261786E0,3.981557369E0,-5.817909837E-1
3.502984766E0,-3.897760391E0,3.849876404E0,-7.900865674E-1
3.504996099E0,-4.003105164E0,3.708618402E0,-1.010353088E0
3.507007527E0,-4.115632534E0,3.536235809E0,-1.266532660E0
3.509018902E0,-4.187458992E0,3.438073635E0,-1.386242747E0
3.511030235E0,-4.316745758E0,3.213018656E0,-1.611297727E0
3.513041735E0,-4.455609322E0,2.975992680E0,-1.903390408E0
3.515053280E0,-4.532223701E0,2.849100113E0,-2.047042370E0
3.517064863E0,-4.716577530E0,2.580949545E0,-2.336740971E0
3.519076478E0,-4.946720123E0,2.310404539E0,-2.657563925E0
3.521088120E0,-5.056853294E0,2.183511972E0,-2.820369720E0
3.523099720E0,-5.339369297E0,1.929726601E0,-3.174711466E0
3.525111345E0,-5.641038418E0,1.675941229E0,-3.579331636E0
3.527122992E0,-5.978621006E0,1.388636947E0,-4.012681961E0
3.529134547E0,-6.153397560E0,1.259350061E0,-4.228160381E0
3.531146073E0,-6.531681538E0,1.005564690E0,-4.730942726E0
3.533157573E0,-6.931513309E0,8.906430602E-1,-5.260360241E0
3.535170287E0,-7.149385452E0,6.631938815E-1,-5.554847240E0
3.537181832E0,-7.609072208E0,4.309563041E-1,-6.162974358E0
3.539193397E0,-8.131008148E0,2.418143749E-1,-6.785466671E0
3.541205022E0,-8.411129951E0,1.556231081E-1,-7.111078262E0
3.543216662E0,-9.007286072E0,-9.576806799E-3,-7.814973831E0
3.545228315E0,-9.668086052E0,-1.532289088E-1,-8.578723907E0
3.547239981E0,-1.002242756E1,-2.082955539E-1,-8.983344078E0
3.549251695E0,-1.079575443E1,-3.351882398E-1,-9.835680008E0
3.551263419E0,-1.163133144E1,-5.243301988E-1,-1.070956326E1
3.553275119E0,-1.203834534E1,-6.416460276E-1,-1.116685581E1
3.555286819E0,-1.292180538E1,-9.217676520E-1,-1.208862400E1
3.557298552E0,-1.376217079E1,-9.121908545E-1,-1.280449009E1
3.559310318E0,-1.416679096E1,-9.481038451E-1,-1.303912163E1
3.561322051E0,-1.511758804E1,-1.235408068E0,-1.385315037E1
3.563333817E0,-1.626441002E1,-1.872265697E0,-1.489253330E1
3.565345617E0,-1.756925011E1,-2.772485495E0,-1.624046898E1
3.567357417E0,-1.821329117E1,-3.057395458E0,-1.679113579E1
3.569397550E0,-1.981979942E1,-2.961627483E0,-1.697548866E1
3.571437716E0,-2.022920799E1,-3.138798475E0,-1.693718147E1
3.573477816E0,-2.089240265E1,-3.869029999E0,-1.776557541E1
3.575518016E0,-2.115336990E1,-4.929960728E0,-1.892676353E1
3.577558182E0,-2.119646645E1,-5.602731228E0,-1.947024727E1
3.579598415E0,-2.111745834E1,-6.984185696E0,-2.015738297E1
3.581638681E0,-2.077029800E1,-8.332120895E0,-2.032018852E1
3.583678981E0,-2.050454140E1,-9.024045944E0,-2.031061172E1
3.585719281E0,-1.978628159E1,-1.043901825E1,-2.028188133E1
3.587759547E0,-1.820610809E1,-1.221072769E1,-1.966417694E1
3.589801680E0,-1.750700188E1,-1.269435692E1,-1.924519157E1
3.591843880E0,-1.672888565E1,-1.314446640E1,-1.877353477E1
3.593886146E0,-1.494281101E1,-1.403989792E1,-1.763868332E1
3.595927612E0,-1.284040260E1,-1.504576206E1,-1.628116989E1
3.597969912E0,-1.166485023E1,-1.561079407E1,-1.550544834E1
3.600012212E0,-9.026439667E0,-1.680071259E1,-1.374062252E1
3.602054478E0,-5.909189224E0,-1.797865868E1,-1.167203236E1
3.604096744E0,-4.185064793E0,-1.851974869E1,-1.051323891E1
3.606139010E0,-4.668693244E-1,-1.949897766E1,-7.855675220E0
3.608181243E0,3.519476414E0,-2.021963120E1,-4.632780075E0
3.610223343E0,7.609072208E0,-2.047581100E1,-2.770091295E0
3.612265376E0,9.653720856E0,-2.051890755E1,1.252167463E0
3.614307376E0,1.366879654E1,-1.979585838E1,5.444714069E0
3.616356009E0,1.730828285E1,-1.814864731E1,9.462183952E0
3.618404675E0,1.915181732E1,-1.710238075E1,1.135839176E1
3.620453341E0,2.282212830E1,-1.489732170E1,1.507449245E1
3.622502007E0,2.681595612E1,-1.236156273E1,1.890760994E1
3.624550673E0,3.030191422E1,-1.108066463E1,2.089240265E1
3.626599339E0,3.188208771E1,-8.590695381E0,2.500833511E1
3.628647972E0,3.461896133E1,-6.244377136E0,2.917903328E1
3.630668272E0,3.675937653E1,-4.118026733E0,3.356999969E1
3.632688572E0,3.759255981E1,-3.160346270E0,3.585197449E1
3.634708872E0,3.875374603E1,-1.460463047E0,4.045362854E1
3.636729105E0,3.924695206E1,4.070143029E-2,4.504361343E1
3.638749338E0,3.919427872E1,7.829039693E-1,4.735401917E1
3.640769471E0,3.853587341E1,2.231395960E0,5.153668976E1
3.642789571E0,3.728849411E1,3.624821424E0,5.477873611E1
3.644809637E0,3.652235031E1,4.283226967E0,5.600935745E1
3.646829670E0,3.473627472E1,5.363311291E0,5.756558609E1
3.648849703E0,3.188208771E1,6.526893139E0,5.722800446E1
3.650868969E0,3.097468567E1,6.526893139E0,5.722800446E1
3.652887102E0,3.010798454E1,6.876446724E0,5.501576233E1
3.654905202E0,2.845359039E1,6.888417721E0,5.152950668E1
3.656923235E0,2.670821762E1,6.579565525E0,4.713614655E1
3.658941235E0,2.581039238E1,6.320991993E0,4.470124054E1
3.660959235E0,2.402401924E1,5.684134007E0,3.963720703E1
3.662977201E0,2.234807777E1,5.008969307E0,3.478894806E1
3.664995167E0,2.155320168E1,4.673481941E0,3.261950302E1
3.667013100E0,2.004246140E1,4.094084740E0,2.886539268E1
3.669031066E0,1.859875679E1,3.627215624E0,2.595883179E1
3.671049132E0,1.787570763E1,3.454833031E0,2.479524994E1
3.673067232E0,1.647988892E1,3.208230257E0,2.296578217E1
3.675085398E0,1.517983723E1,3.117250681E0,2.166333580E1
3.677096964E0,1.456662273E1,3.117250681E0,2.119886017E1
3.679108530E0,1.340543461E1,3.150769472E0,2.056918526E1
3.681120063E0,1.237353325E1,3.246537447E0,2.045665741E1
3.683131596E0,1.145415974E1,3.337517262E0,2.059073257E1
3.685143096E0,1.104475212E1,3.524264812E0,2.092831612E1
3.687154596E0,1.028578949E1,3.744531393E0,2.139997292E1
3.689166129E0,9.581894875E0,3.971980572E0,2.181177521E1
3.691177629E0,9.273042679E0,4.094084740E0,2.194824600E1
3.693189095E0,8.710405350E0,4.307168961E0,2.204640770E1
3.695200561E0,8.190863609E0,4.498704910E0,2.195303345E1
3.697221261E0,7.735964775E0,4.711789131E0,2.158432770E1
3.699242027E0,7.513304234E0,4.833893299E0,2.132575226E1
3.701262860E0,7.075165272E0,5.116708279E0,2.061706924E1
3.703283693E0,6.608295918E0,5.413589478E0,1.967854309E1
3.705304559E0,6.352116585E0,5.557241440E0,1.914942360E1
3.707325492E0,5.794267178E0,5.827786446E0,1.799062920E1
3.709346425E0,5.243600845E0,6.040870190E0,1.671691513E1
3.711368425E0,4.996998310E0,6.127061367E0,1.606569290E1
3.713391558E0,4.529829502E0,6.265924931E0,1.476085186E1
3.715414691E0,4.149151325E0,6.356904984E0,1.347726059E1
3.717437857E0,3.861847401E0,6.404788971E0,1.223227596E1
3.719461023E0,3.749319792E0,6.505345345E0,1.162654305E1
3.721484189E0,3.591302633E0,6.651391506E0,1.048690319E1
3.723507355E0,3.514688015E0,6.811803341E0,9.486125946E0
3.725530521E0,3.493140221E0,6.886023521E0,9.043199539E0
3.727553687E0,3.473986626E0,7.017704487E0,8.298602104E0
3.729576820E0,3.440467834E0,7.180510044E0,7.700051785E0
3.731627853E0,3.349488258E0,7.369652271E0,7.221211433E0
3.733678953E0,3.227383852E0,7.537246227E0,6.850110531E0
3.735730019E0,3.162740469E0,7.606678009E0,6.694487095E0
3.737781052E0,3.019088268E0,7.733570576E0,6.443096161E0
3.739832052E0,2.846705914E0,7.812579632E0,6.246771336E0
3.741883085E0,2.657563925E0,7.850886822E0,6.162974358E0
3.743934118E0,2.571372509E0,7.901165009E0,6.007351398E0
3.745985218E0,2.415749550E0,7.901165009E0,5.875670433E0
3.748036351E0,2.324769735E0,7.872434616E0,5.739200592E0
3.750087484E0,2.298433542E0,7.846098423E0,5.664980412E0
3.752138650E0,2.264914751E0,7.769483566E0,5.509357452E0
3.754189850E0,2.264914751E0,7.661744595E0,5.387253284E0
3.756241083E0,2.288856745E0,7.592312813E0,5.341763496E0
3.758283016E0,2.339135170E0,7.470208645E0,5.315426826E0
3.760324916E0,2.449268341E0,7.362469673E0,5.332186222E0
3.762366749E0,2.489969730E0,7.333739281E0,5.365705490E0
3.764408582E0,2.573766708E0,7.300220490E0,5.456685066E0
3.766450448E0,2.650381327E0,7.309797287E0,5.600337029E0
3.768492214E0,2.691082716E0,7.314585686E0,5.669768810E0
3.770534014E0,2.789244890E0,7.355287075E0,5.918766022E0
3.772573680E0,2.810792685E0,7.350498676E0,6.019322395E0
3.774613280E0,2.853888512E0,7.357681274E0,6.234800339E0
3.776652846E0,2.846705914E0,7.336133480E0,6.332962990E0
3.778693612E0,2.827552319E0,7.302614689E0,6.529287338E0
3.780733145E0,2.810792685E0,7.221211433E0,6.716034889E0
3.782772678E0,2.789244890E0,7.178115845E0,6.797437668E0
3.784812244E0,2.748543501E0,7.072771072E0,6.919542313E0
3.786851777E0,2.679111719E0,6.965032101E0,7.020098686E0
3.788891343E0,2.638410330E0,6.900388718E0,7.058405876E0
3.790930943E0,2.576161146E0,6.783072472E0,7.103895664E0
3.792942609E0,2.480392933E0,6.665756702E0,7.118260860E0
3.794954242E0,2.413355350E0,6.589142323E0,7.132626057E0
3.796965975E0,2.245761156E0,6.433519363E0,7.161356449E0
3.798977741E0,2.078166962E0,6.292261124E0,7.142202854E0
3.800989541E0,1.855506301E0,6.139032364E0,7.106289864E0
3.803001341E0,1.735796213E0,6.074388981E0,7.056011677E0
3.805013141E0,1.508347034E0,5.909189224E0,6.909965515E0
3.807024907E0,1.278503656E0,5.779901981E0,6.694487095E0
3.809036607E0,1.170764685E0,5.720046997E0,6.538864136E0
3.811048340E0,9.983820915E-1,5.597942829E0,6.172551155E0
3.813969340E0,7.948749661E-1,5.461473465E0,5.767930984E0
3.815986866E0,6.416460276E-1,5.370493889E0,5.313032627E0
3.817998866E0,4.979939461E-1,5.250783443E0,4.836287498E0
3.820010866E0,4.213795066E-1,5.200505257E0,4.601655483E0
3.822022366E0,3.256114423E-1,5.135861874E0,4.132391930E0
3.824033699E0,2.442085743E-1,5.071218491E0,3.684676409E0
3.826045199E0,1.388636976E-1,4.975450516E0,3.289633036E0
3.828056799E0,7.422025502E-2,4.934749126E0,3.110068083E0
3.830068465E0,-8.858546615E-2,4.841075897E0,2.755726099E0
3.832080036E0,-2.633621991E-1,4.735731125E0,2.410961151E0
3.834097661E0,-3.519476354E-1,4.678270340E0,2.248155355E0
3.836114661E0,-5.027823448E-1,4.541800499E0,1.944091797E0
3.838131161E0,-5.410895944E-1,4.331110954E0,1.651999116E0
3.840147070E0,-5.171475410E-1,4.197035789E0,1.522712231E0
3.842162570E0,-5.434837937E-1,3.938461781E0,1.295263171E0
3.844177723E0,-7.996633649E-1,3.778050184E0,1.053448796E0
3.846192723E0,-1.273715258E0,3.722983599E0,9.097966552E-1
3.848207589E0,-1.563413739E0,3.658340216E0,5.722141862E-1
3.850222339E0,-2.181117773E0,3.598485231E0,1.819593310E-1
3.852237044E0,-2.774879694E0,3.481169224E0,-2.920926213E-1
3.854251488E0,-3.055001259E0,3.423708439E0,-5.410895944E-1
3.856265803E0,-3.620033026E0,3.268085241E0,-1.051054597E0
3.858279953E0,-4.158728123E0,3.069366693E0,-1.604115129E0
3.860302333E0,-4.424484730E0,2.932897091E0,-1.896207690E0
3.862324287E0,-4.985027313E0,2.638410330E0,-2.523488522E0
3.864345808E0,-5.557241440E0,2.310404539E0,-3.234566450E0
3.866366933E0,-6.127061367E0,1.999158382E0,-4.017470360E0
3.868387693E0,-6.438307762E0,1.855506301E0,-4.422090530E0
3.870408116E0,-7.120655060E0,1.584961534E0,-5.277119637E0
3.872428190E0,-7.860463619E0,1.362300754E0,-6.196493149E0
3.874447940E0,-8.245929718E0,1.268926859E0,-6.670545101E0
3.876467388E0,-9.067141533E0,1.127668977E0,-7.589918613E0
3.878486588E0,-9.936236382E0,1.079784989E0,-8.473379135E0
3.880505788E0,-1.043183613E1,1.060631394E0,-8.933065414E0
3.882525021E0,-1.144937134E1,1.012747288E0,-9.871592522E0
3.884544287E0,-1.249324417E1,9.121908545E-1,-1.081011963E1
3.886563553E0,-1.303193951E1,8.212111592E-1,-1.125304699E1
3.888582819E0,-1.408299351E1,6.153098345E-1,-1.206468201E1
3.890602119E0,-1.506252098E1,3.711012602E-1,-1.275421143E1
3.892621452E0,-1.598189449E1,1.077390760E-1,-1.332403183E1
3.894639118E0,-1.644876480E1,-1.915361360E-2,-1.356584644E1
3.896656818E0,-1.731307030E1,-2.657563984E-1,-1.396567822E1
3.898674551E0,-1.800499535E1,-4.884171486E-1,-1.418115616E1
3.900692351E0,-1.828511620E1,-5.913678408E-1,-1.419791508E1
3.902710151E0,-1.870889091E1,-7.733271718E-1,-1.403510952E1
3.904728017E0,-1.886211967E1,-9.696516991E-1,-1.362330723E1
3.906745850E0,-1.883817673E1,-1.086967587E0,-1.333360863E1
3.908763650E0,-1.840482712E1,-1.498770237E0,-1.255309868E1
3.910781450E0,-1.747827148E1,-2.133233786E0,-1.147810268E1
3.912799150E0,-1.693718147E1,-2.499546528E0,-1.086039829E1
3.914816916E0,-1.575205135E1,-3.256114244E0,-9.577106476E0
3.916834682E0,-1.447564316E1,-3.995922565E0,-8.260294914E0
3.918852482E0,-1.377174759E1,-4.345476151E0,-7.604283810E0
3.920864448E0,-1.223466969E1,-5.011363506E0,-6.340145588E0
3.922876381E0,-1.041268253E1,-5.588366032E0,-5.042488098E0
3.924888314E0,-8.257901192E0,-6.057629585E0,-3.667917013E0
3.926900247E0,-7.032069683E0,-6.268319130E0,-2.947262287E0
3.928912180E0,-4.321534157E0,-6.637026310E0,-1.367089152E0
3.930924113E0,-1.364694953E0,-6.802226067E0,4.118026793E-1
3.932936046E0,2.011129409E-1,-6.807014942E0,1.391031146E0
3.934947979E0,3.404554844E0,-6.558017731E0,3.509899616E0
3.936959879E0,6.689698696E0,-5.973832607E0,5.902006626E0
3.938971712E0,8.372822762E0,-5.535693645E0,7.144597054E0
3.940992745E0,1.177737713E1,-4.335899353E0,9.660902977E0
3.943013811E0,1.502182007E1,-2.748543501E0,1.218439198E1
3.945034877E0,1.826356888E1,-5.817909837E-1,1.458338165E1
3.947055943E0,1.976233864E1,6.631938815E-1,1.573289776E1
3.949077009E0,2.236004829E1,3.299209833E0,1.792838097E1
3.951098042E0,2.455343628E1,5.985803604E0,1.992275047E1
3.953119075E0,2.635866356E1,8.473379135E0,2.172797966E1
3.955140175E0,2.709607887E1,9.565135002E0,2.256834412E1
3.957161208E0,2.830036163E1,1.133923817E1,2.420118904E1
3.959182174E0,2.929635048E1,1.198567295E1,2.566674042E1
3.961203140E0,2.967942238E1,1.279970169E1,2.630120277E1
3.963224106E0,3.022769356E1,1.304151630E1,2.734268188E1
3.965245006E0,3.044795990E1,1.276618290E1,2.800587463E1
3.967265939E0,3.043598938E1,1.251479149E1,2.825966072E1
3.969286872E0,3.003855324E1,1.188990498E1,2.865230942E1
3.971307772E0,2.912636185E1,1.128656578E1,2.870977020E1
3.973328705E0,2.845119667E1,1.102081013E1,2.865470314E1
3.976252705E0,2.553266525E1,1.033846188E1,2.815670967E1
3.978344866E0,2.299451256E1,1.015410900E1,2.788616562E1
3.980356866E0,2.160108566E1,9.804554939E0,2.726846123E1
3.982368866E0,1.873283195E1,9.478943825E0,2.660047913E1
3.984380866E0,1.600344276E1,9.064746857E0,2.583193970E1
3.986392866E0,1.477761173E1,8.820538521E0,2.540816689E1
3.988404866E0,1.264407825E1,8.210017204E0,2.448370552E1
3.990416866E0,1.103756905E1,7.453449249E0,2.349968910E1
3.992428866E0,1.036719227E1,7.029675484E0,2.298732948E1
3.994440723E0,9.285013199E0,6.115090370E0,2.190993881E1
3.996452473E0,8.387187958E0,5.212476254E0,2.079184532E1
3.998464139E0,7.996932983E0,4.809951305E0,2.021484375E1
4.000475739E0,7.271489620E0,4.163516521E0,1.911111641E1
4.002487375E0,6.593930721E0,3.773261786E0,1.816301346E1
4.004498958E0,5.935525417E0,3.679888010E0,1.773684502E1
4.006510573E0,5.619490623E0,3.641580820E0,1.702816010E1
4.008522144E0,5.020940304E0,3.792415380E0,1.644636917E1
4.010533677E0,4.443638325E0,4.041412354E0,1.600344276E1
4.012545114E0,4.177882195E0,4.189853191E0,1.583106041E1
4.014556584E0,3.366247654E0,4.647145271E0,1.543122864E1
4.016567972E0,3.100491285E0,4.783615112E0,1.530194187E1
4.018579340E0,2.841917515E0,4.901230335E0,1.516547203E1
4.020590640E0,2.308010340E0,5.083189487E0,1.484704304E1
4.022601878E0,1.781286120E0,5.183745861E0,1.441099930E1
4.024613196E0,1.520318031E0,5.214870453E0,1.414763737E1
4.026624543E0,9.672574997E-1,5.212476254E0,1.353232765E1
4.028635918E0,3.854664862E-1,5.162198067E0,1.283082581E1
4.030647358E0,1.077390760E-1,5.107131481E0,1.242860031E1
4.032658858E0,-4.525041282E-1,4.929960728E0,1.154992867E1
4.034670376E0,-1.036689281E0,4.702212334E0,1.060900688E1
4.036681911E0,-1.704671621E0,4.577713490E0,1.010861874E1
4.038693497E0,-2.054224968E0,4.304774761E0,9.021651268E0
4.040705097E0,-2.801215887E0,3.960009575E0,7.836521626E0
4.042716697E0,-3.567360640E0,3.562572241E0,6.569988728E0
4.044728330E0,-3.993528366E0,3.375824451E0,5.904400826E0
4.046739963E0,-4.893748283E0,3.004723072E0,4.493916512E0
4.048751596E0,-5.842151642E0,2.631227732E0,2.956839085E0
4.050763229E0,-6.332962990E0,2.442085743E0,2.161964178E0
4.052774862E0,-7.355287075E0,2.061407566E0,5.099649429E-1
4.054786562E0,-8.408735275E0,1.675941229E0,-1.264138460E0
4.056826195E0,-9.414299965E0,1.280897856E0,-3.107673883E0
4.058865928E0,-1.041507626E1,8.954314590E-1,-5.016151905E0
4.060905761E0,-1.151640987E1,6.871358752E-1,-5.990592003E0
4.062945594E0,-1.203355694E1,4.141969085E-1,-7.951443195E0
4.064985460E0,-1.312052441E1,3.232172430E-1,-9.905111313E0
4.067025293E0,-1.426495266E1,3.256114423E-1,-1.178934860E1
4.069065126E0,-1.485661983E1,3.160346150E-1,-1.273266411E1
4.071104992E0,-1.607766342E1,2.633621991E-1,-1.463126564E1
4.073144925E0,-1.727715874E1,1.268926859E-1,-1.654932022E1
4.075184891E0,-1.836891365E1,-4.309562966E-2,-1.833300018E1
4.077224957E0,-1.886690712E1,-1.556231081E-1,-1.916857719E1
4.079265090E0,-1.975036812E1,-4.118026793E-1,-2.063382912E1
4.081305290E0,-2.009752846E1,-5.434837937E-1,-2.124195671E1
4.083345556E0,-2.055482101E1,-8.331822157E-1,-2.209908104E1
4.085385822E0,-2.069847298E1,-1.122880578E0,-2.227146339E1
4.087426088E0,-2.063622284E1,-1.288080573E0,-2.206316757E1
4.089466421E0,-2.021005440E1,-1.721431017E0,-2.107196808E1
4.091506754E0,-1.915900040E1,-2.422932148E0,-1.913266373E1
4.093547054E0,-1.766501808E1,-3.380612850E0,-1.636017799E1
4.095587387E0,-1.682944298E1,-3.897760391E0,-1.484704304E1
4.097627687E0,-1.506730938E1,-4.922778130E0,-1.180371380E1
4.099667887E0,-1.323784065E1,-5.933131218E0,-8.892364502E0
4.101708053E0,-1.230410194E1,-6.419154167E0,-7.518092632E0
4.103751219E0,-1.034085655E1,-7.247547626E0,-4.888959885E0
4.105794452E0,-8.107066154E0,-7.862857819E0,-2.293645144E0
4.107837718E0,-6.838139534E0,-8.087912560E0,-9.696516991E-1
4.109881051E0,-4.070142746E0,-8.375216484E0,1.776497602E0
4.111924384E0,-1.058237195E0,-8.444648743E0,4.656722069E0
4.113967717E0,2.121262789E0,-8.365639687E0,7.451055050E0
4.116011017E0,3.758896589E0,-7.980173588E0,8.770259857E0
4.118026383E0,7.096713066E0,-7.209240437E0,1.137754536E1
4.120041683E0,1.029536629E1,-6.040870190E0,1.387948608E1
4.122056916E0,1.176540661E1,-5.281908035E0,1.506970406E1
4.124072149E0,1.420749187E1,-3.406949043E0,1.740883827E1
4.126087382E0,1.660438728E1,-1.295263171E0,1.957080269E1
4.128102648E0,1.777515221E1,-2.418143749E-1,2.054524422E1
4.130117948E0,1.999936485E1,1.752555609E0,2.236723137E1
4.132133214E0,2.216851234E1,3.404554844E0,2.395458603E1
4.134148480E0,2.331772804E1,4.084507942E0,2.470427132E1
4.136163713E0,2.664836311E1,5.471050262E0,2.667230415E1
4.138179279E0,2.768026352E1,5.724835396E0,2.720142365E1
4.140194379E0,2.863076210E1,5.890035629E0,2.765153313E1
4.142209445E0,3.021332932E1,5.957073212E0,2.817825699E1
4.144224478E0,3.123565292E1,5.763142586E0,2.857808876E1
4.146239444E0,3.164027405E1,5.480627060E0,2.875047112E1
4.148254377E0,3.157084084E1,5.346551895E0,2.870737648E1
4.150269210E0,3.083342743E1,5.190928459E0,2.844880295E1
4.152284010E0,2.930592728E1,5.217264652E0,2.795799065E1
4.154298776E0,2.827881432E1,5.308244228E0,2.772814751E1
4.156313542E0,2.584391022E1,5.674557209E0,2.737859344E1
4.158328308E0,2.306394386E1,6.186916351E0,2.730197906E1
4.160343141E0,2.165136528E1,6.445490360E0,2.731155586E1
4.162358007E0,1.898661804E1,6.809409142E0,2.714396286E1
4.164369873E0,1.661396408E1,6.943484306E0,2.663399696E1
4.166381673E0,1.558206367E1,6.897994518E0,2.625331879E1
4.168393473E0,1.380287170E1,6.605901718E0,2.537704086E1
4.170405206E0,1.242381191E1,6.081571579E0,2.436160088E1
4.172416939E0,1.143021774E1,5.724835396E0,2.309746170E1
4.174428672E0,1.103038692E1,4.925172329E0,2.239356613E1
4.176440438E0,1.041986465E1,4.120420933E0,2.094507408E1
4.178452171E0,9.893140793E0,3.454833031E0,1.960432243E1
4.180463871E0,9.648932457E0,3.232172251E0,1.901056099E1
4.182475537E0,9.158121109E0,3.019088268E0,1.794992828E1
4.184496470E0,8.703222275E0,3.076549292E0,1.704731560E1
4.186517470E0,8.329727173E0,3.339911461E0,1.626201630E1
4.188538503E0,8.162133217E0,3.500322819E0,1.582627201E1
4.190559536E0,7.917924404E0,3.945644379E0,1.519899082E1
4.192580636E0,7.709628582E0,4.371812344E0,1.484225464E1
4.194601769E0,7.621043205E0,4.577713490E0,1.469112110E1
4.196622935E0,7.455843449E0,5.126285076E0,1.425537586E1
4.198645335E0,7.412747860E0,5.286696434E0,1.409735870E1
4.200668268E0,7.384017467E0,5.427954674E0,1.394891834E1
4.202691268E0,7.316979885E0,5.664980412E0,1.355148125E1
4.204714301E0,7.216423035E0,5.882853031E0,1.309897709E1
4.206737367E0,7.120655060E0,6.057629585E0,1.256267548E1
4.208760533E0,7.058405876E0,6.124667168E0,1.224664116E1
4.210783733E0,6.886023521E0,6.253953934E0,1.159062958E1
4.212806933E0,6.668150902E0,6.349722385E0,1.086039829E1
4.214830233E0,6.553229332E0,6.383241177E0,1.050126839E1
4.216853533E0,6.344933987E0,6.428730965E0,9.732728958E0
4.218905166E0,6.136638165E0,6.447884560E0,8.949825287E0
4.220956832E0,5.957073212E0,6.479009151E0,8.255506516E0
4.223008532E0,5.818209171E0,6.500556946E0,7.594707012E0
4.225060232E0,5.765536785E0,6.536469936E0,7.283460617E0
4.227111932E0,5.667374611E0,6.629843712E0,6.775889874E0
4.229163598E0,5.638644218E0,6.775889874E0,6.347328186E0
4.231215231E0,5.612308025E0,6.948272705E0,6.031293392E0
4.233266864E0,5.629067421E0,7.044040680E0,5.925948620E0
4.235318464E0,5.660192013E0,7.218817234E0,5.782296181E0
4.237370030E0,5.705681801E0,7.357681274E0,5.746383190E0
4.239421663E0,5.727229595E0,7.395988464E0,5.753565788E0
4.241473329E0,5.755959988E0,7.419930458E0,5.846940041E0
4.243525029E0,5.736806393E0,7.355287075E0,6.007351398E0
4.245567429E0,5.720046997E0,7.309797287E0,6.110301971E0
4.247609729E0,5.676951408E0,7.163750648E0,6.380846977E0
4.249652029E0,5.605125427E0,6.981791496E0,6.728005886E0
4.251694362E0,5.588366032E0,6.890811920E0,6.933907509E0
